# Created: 2019-11-28 14:12:23.551920
# rshift intensity
76.1738 0.13667000000000007
76.4989 0.10334000000000021
76.824 0.1566700000000001
77.1491 0.12334000000000023
77.4721 0.1466700000000003
77.7972 0.11334
78.1223 0.0900000000000003
78.4474 0.11334
78.7724 0.05333999999999994
79.0975 0.05333999999999994
79.4204 0.043340000000000156
79.7454 0.020000000000000018
80.0704 0.06000000000000005
80.3954 0.02334000000000014
80.7204 0.03666999999999998
81.0454 0.03666999999999998
81.3682 0.016669999999999963
81.6931 0.016669999999999963
82.0181 0.013339999999999907
82.343 0.020000000000000018
82.6679 0.043340000000000156
82.9907 0.033339999999999925
83.3156 0.020000000000000018
83.6405 0.03000000000000025
83.9654 0.026670000000000194
84.2903 0.03000000000000025
84.613 0.040000000000000036
84.9378 0.013339999999999907
85.2626 0.020000000000000018
85.5875 0.020000000000000018
85.9101 0.040000000000000036
86.2349 0.016669999999999963
86.5597 0.04667000000000021
86.8845 0.03000000000000025
87.2093 0.033339999999999925
87.5319 0.05667
87.8566 0.026670000000000194
88.1814 0.02334000000000014
88.5061 0.016669999999999963
88.8286 0.05333999999999994
89.1533 0.033339999999999925
89.478 0.033339999999999925
89.8027 0.05333999999999994
90.1252 0.04667000000000021
90.4499 0.03000000000000025
90.7745 0.03000000000000025
91.0992 0.040000000000000036
91.4216 0.050000000000000266
91.7462 0.016669999999999963
92.0708 0.033339999999999925
92.3954 0.040000000000000036
92.7179 0.040000000000000036
93.0424 0.03666999999999998
93.367 0.043340000000000156
93.6915 0.040000000000000036
94.0139 0.033339999999999925
94.3384 0.033339999999999925
94.6629 0.02334000000000014
94.9853 0.043340000000000156
95.3098 0.040000000000000036
95.6342 0.04667000000000021
95.9587 0.050000000000000266
96.281 0.043340000000000156
96.6055 0.040000000000000036
96.9299 0.050000000000000266
97.2522 0.03666999999999998
97.5766 0.033339999999999925
97.901 0.03666999999999998
98.2232 0.05667
98.5476 0.050000000000000266
98.8719 0.020000000000000018
99.1942 0.07667000000000002
99.5185 0.04667000000000021
99.8428 0.03666999999999998
100.165 0.0
100.489 0.040000000000000036
100.814 0.043340000000000156
101.136 0.043340000000000156
101.46 0.06000000000000005
101.784 0.02334000000000014
102.106 0.06000000000000005
102.431 0.03666999999999998
102.755 0.03666999999999998
103.077 0.05333999999999994
103.401 0.033339999999999925
103.725 0.07000000000000028
104.047 0.06334000000000017
104.372 0.050000000000000266
104.696 0.07000000000000028
105.018 0.016669999999999963
105.342 0.07333999999999996
105.666 0.040000000000000036
105.988 0.05333999999999994
106.312 0.03666999999999998
106.634 0.06000000000000005
106.958 0.03666999999999998
107.282 0.043340000000000156
107.604 0.07333999999999996
107.928 0.07667000000000002
108.252 0.05333999999999994
108.574 0.08000000000000007
108.898 0.05333999999999994
109.22 0.06000000000000005
109.544 0.07000000000000028
109.868 0.026670000000000194
110.19 0.05667
110.514 0.033339999999999925
110.836 0.05333999999999994
111.159 0.07000000000000028
111.483 0.05667
111.805 0.043340000000000156
112.129 0.050000000000000266
112.451 0.03000000000000025
112.775 0.033339999999999925
113.096 0.026670000000000194
113.42 0.050000000000000266
113.744 0.03666999999999998
114.066 0.040000000000000036
114.39 0.043340000000000156
114.711 0.05333999999999994
115.035 0.06334000000000017
115.357 0.050000000000000266
115.681 0.04667000000000021
116.004 0.02334000000000014
116.326 0.05333999999999994
116.65 0.026670000000000194
116.971 0.03000000000000025
117.295 0.033339999999999925
117.617 0.050000000000000266
117.94 0.040000000000000036
118.262 0.020000000000000018
118.586 0.0900000000000003
118.907 0.03666999999999998
119.231 0.05333999999999994
119.554 0.04667000000000021
119.876 0.04667000000000021
120.199 0.03666999999999998
120.521 0.040000000000000036
120.845 0.04667000000000021
121.166 0.06334000000000017
121.49 0.026670000000000194
121.811 0.05667
122.135 0.043340000000000156
122.456 0.050000000000000266
122.78 0.05667
123.101 0.05333999999999994
123.424 0.06667000000000023
123.746 0.03000000000000025
124.069 0.06667000000000023
124.391 0.03666999999999998
124.714 0.026670000000000194
125.035 0.05667
125.359 0.043340000000000156
125.68 0.043340000000000156
126.004 0.043340000000000156
126.325 0.050000000000000266
126.648 0.04667000000000021
126.97 0.02334000000000014
127.291 0.06000000000000005
127.614 0.043340000000000156
127.935 0.05333999999999994
128.259 0.04667000000000021
128.58 0.04667000000000021
128.903 0.05333999999999994
129.224 0.06667000000000023
129.548 0.06334000000000017
129.869 0.06667000000000023
130.192 0.05667
130.513 0.06000000000000005
130.834 0.05667
131.158 0.07000000000000028
131.479 0.08667000000000025
131.802 0.06000000000000005
132.123 0.07667000000000002
132.446 0.07000000000000028
132.767 0.06000000000000005
133.09 0.07333999999999996
133.411 0.07667000000000002
133.733 0.06667000000000023
134.056 0.07000000000000028
134.377 0.04667000000000021
134.7 0.043340000000000156
135.021 0.05333999999999994
135.342 0.04667000000000021
135.665 0.06334000000000017
135.986 0.043340000000000156
136.309 0.033339999999999925
136.63 0.03000000000000025
136.951 0.050000000000000266
137.274 0.033339999999999925
137.595 0.033339999999999925
137.918 0.043340000000000156
138.238 0.06334000000000017
138.559 0.06000000000000005
138.882 0.06334000000000017
139.203 0.06667000000000023
139.526 0.07333999999999996
139.847 0.04667000000000021
140.168 0.050000000000000266
140.491 0.05333999999999994
140.811 0.07333999999999996
141.132 0.06000000000000005
141.455 0.08334000000000019
141.776 0.07667000000000002
142.097 0.06667000000000023
142.419 0.06000000000000005
142.74 0.08667000000000025
143.061 0.07333999999999996
143.384 0.07333999999999996
143.704 0.06000000000000005
144.027 0.08000000000000007
144.348 0.07000000000000028
144.668 0.07333999999999996
144.991 0.08000000000000007
145.312 0.07333999999999996
145.632 0.05333999999999994
145.955 0.08667000000000025
146.276 0.06334000000000017
146.596 0.06667000000000023
146.917 0.04667000000000021
147.24 0.05667
147.56 0.06334000000000017
147.881 0.06000000000000005
148.203 0.07000000000000028
148.524 0.026670000000000194
148.844 0.07667000000000002
149.167 0.06334000000000017
149.487 0.06667000000000023
149.808 0.06000000000000005
150.131 0.06000000000000005
150.451 0.050000000000000266
150.771 0.07333999999999996
151.092 0.05667
151.414 0.08667000000000025
151.735 0.08000000000000007
152.055 0.06000000000000005
152.378 0.05333999999999994
152.698 0.05333999999999994
153.018 0.050000000000000266
153.339 0.05333999999999994
153.661 0.07667000000000002
153.982 0.06667000000000023
154.302 0.06334000000000017
154.622 0.03666999999999998
154.945 0.04667000000000021
155.265 0.07333999999999996
155.585 0.040000000000000036
155.905 0.06667000000000023
156.228 0.04667000000000021
156.548 0.06334000000000017
156.868 0.07333999999999996
157.188 0.06334000000000017
157.511 0.09333999999999998
157.831 0.06000000000000005
158.151 0.07667000000000002
158.471 0.07333999999999996
158.794 0.05667
159.114 0.08334000000000019
159.434 0.06000000000000005
159.754 0.06334000000000017
160.074 0.050000000000000266
160.396 0.033339999999999925
160.717 0.07333999999999996
161.037 0.03666999999999998
161.357 0.050000000000000266
161.679 0.050000000000000266
161.999 0.05333999999999994
162.319 0.05333999999999994
162.639 0.08334000000000019
162.959 0.06334000000000017
163.281 0.07000000000000028
163.601 0.08667000000000025
163.921 0.07333999999999996
164.241 0.07000000000000028
164.561 0.08000000000000007
164.881 0.07000000000000028
165.203 0.08667000000000025
165.523 0.06334000000000017
165.843 0.10334000000000021
166.163 0.07667000000000002
166.483 0.07667000000000002
166.803 0.06334000000000017
167.125 0.08667000000000025
167.445 0.08667000000000025
167.764 0.05667
168.084 0.06334000000000017
168.404 0.09333999999999998
168.724 0.06334000000000017
169.046 0.08667000000000025
169.366 0.07667000000000002
169.685 0.07667000000000002
170.005 0.0900000000000003
170.325 0.08000000000000007
170.645 0.1200000000000001
170.964 0.06000000000000005
171.286 0.07333999999999996
171.606 0.06334000000000017
171.926 0.06667000000000023
172.245 0.06667000000000023
172.565 0.09333999999999998
172.885 0.050000000000000266
173.204 0.08667000000000025
173.524 0.06000000000000005
173.846 0.05333999999999994
174.166 0.05667
174.485 0.07000000000000028
174.805 0.07000000000000028
175.124 0.06334000000000017
175.444 0.0900000000000003
175.764 0.06334000000000017
176.083 0.06334000000000017
176.403 0.04667000000000021
176.722 0.07000000000000028
177.044 0.06667000000000023
177.363 0.07667000000000002
177.683 0.06000000000000005
178.002 0.06000000000000005
178.322 0.06334000000000017
178.641 0.08667000000000025
178.961 0.06334000000000017
179.28 0.05667
179.6 0.08000000000000007
179.919 0.06000000000000005
180.239 0.07667000000000002
180.558 0.07000000000000028
180.877 0.08334000000000019
181.197 0.06667000000000023
181.516 0.06000000000000005
181.838 0.07667000000000002
182.157 0.07667000000000002
182.476 0.06334000000000017
182.796 0.050000000000000266
183.115 0.08000000000000007
183.434 0.06334000000000017
183.754 0.043340000000000156
184.073 0.050000000000000266
184.392 0.04667000000000021
184.712 0.07333999999999996
185.031 0.06334000000000017
185.35 0.06000000000000005
185.669 0.05333999999999994
185.989 0.08334000000000019
186.308 0.07000000000000028
186.627 0.06334000000000017
186.946 0.06334000000000017
187.265 0.06000000000000005
187.585 0.06334000000000017
187.904 0.05667
188.223 0.08334000000000019
188.542 0.043340000000000156
188.861 0.08667000000000025
189.18 0.07333999999999996
189.499 0.08667000000000025
189.818 0.08000000000000007
190.138 0.06334000000000017
190.457 0.07333999999999996
190.776 0.040000000000000036
191.095 0.08667000000000025
191.414 0.05333999999999994
191.733 0.05333999999999994
192.052 0.05333999999999994
192.371 0.07000000000000028
192.69 0.08334000000000019
193.009 0.08000000000000007
193.328 0.06334000000000017
193.647 0.03666999999999998
193.966 0.06334000000000017
194.285 0.08667000000000025
194.602 0.06667000000000023
194.92 0.06667000000000023
195.239 0.08334000000000019
195.558 0.05667
195.877 0.07333999999999996
196.196 0.050000000000000266
196.515 0.10334000000000021
196.834 0.06000000000000005
197.153 0.10334000000000021
197.471 0.07333999999999996
197.79 0.08667000000000025
198.109 0.0900000000000003
198.428 0.05667
198.747 0.07667000000000002
199.065 0.07667000000000002
199.382 0.07000000000000028
199.701 0.0900000000000003
200.02 0.09333999999999998
200.338 0.11334
200.657 0.06000000000000005
200.976 0.08000000000000007
201.295 0.08667000000000025
201.613 0.07667000000000002
201.932 0.08667000000000025
202.251 0.08000000000000007
202.567 0.07667000000000002
202.886 0.09667000000000003
203.204 0.10000000000000009
203.523 0.09667000000000003
203.842 0.09333999999999998
204.16 0.08000000000000007
204.479 0.07333999999999996
204.797 0.07000000000000028
205.114 0.09333999999999998
205.433 0.0900000000000003
205.751 0.07667000000000002
206.07 0.07000000000000028
206.388 0.09333999999999998
206.707 0.08000000000000007
207.025 0.08000000000000007
207.342 0.06334000000000017
207.66 0.07667000000000002
207.979 0.08334000000000019
208.297 0.08667000000000025
208.615 0.08667000000000025
208.934 0.0900000000000003
209.25 0.08334000000000019
209.569 0.0900000000000003
209.887 0.08000000000000007
210.205 0.05667
210.524 0.09333999999999998
210.842 0.07000000000000028
211.158 0.10334000000000021
211.477 0.06000000000000005
211.795 0.0900000000000003
212.113 0.10000000000000009
212.432 0.08334000000000019
212.75 0.07667000000000002
213.066 0.06667000000000023
213.385 0.09333999999999998
213.703 0.07333999999999996
214.021 0.08667000000000025
214.339 0.08334000000000019
214.656 0.08667000000000025
214.974 0.08334000000000019
215.292 0.11000000000000032
215.61 0.10667000000000026
215.926 0.07667000000000002
216.245 0.10667000000000026
216.563 0.07000000000000028
216.881 0.10000000000000009
217.199 0.11334
217.515 0.10334000000000021
217.833 0.10000000000000009
218.151 0.11000000000000032
218.469 0.10334000000000021
218.785 0.13667000000000007
219.104 0.08667000000000025
219.422 0.1200000000000001
219.74 0.09333999999999998
220.056 0.11667000000000005
220.374 0.10334000000000021
220.692 0.1200000000000001
221.01 0.10667000000000026
221.326 0.12667000000000028
221.644 0.10667000000000026
221.962 0.10334000000000021
222.28 0.11000000000000032
222.596 0.10334000000000021
222.914 0.10667000000000026
223.232 0.10000000000000009
223.547 0.12334000000000023
223.865 0.10334000000000021
224.183 0.1466700000000003
224.501 0.08667000000000025
224.817 0.10667000000000026
225.135 0.1299999999999999
225.453 0.12334000000000023
225.768 0.1466700000000003
226.086 0.11334
226.404 0.11667000000000005
226.722 0.11000000000000032
227.038 0.11334
227.355 0.1200000000000001
227.673 0.12334000000000023
227.989 0.10334000000000021
228.307 0.1299999999999999
228.625 0.12334000000000023
228.94 0.1299999999999999
229.258 0.1299999999999999
229.576 0.11334
229.891 0.12334000000000023
230.209 0.11334
230.527 0.09333999999999998
230.842 0.10000000000000009
231.16 0.12334000000000023
231.478 0.11334
231.793 0.10334000000000021
232.111 0.12667000000000028
232.428 0.13334000000000001
232.744 0.14334000000000024
233.062 0.10000000000000009
233.379 0.1200000000000001
233.695 0.10334000000000021
234.012 0.09333999999999998
234.33 0.1200000000000001
234.645 0.08334000000000019
234.963 0.09333999999999998
235.278 0.07333999999999996
235.596 0.11334
235.913 0.09333999999999998
236.229 0.09333999999999998
236.546 0.12334000000000023
236.864 0.10000000000000009
237.179 0.08000000000000007
237.497 0.11334
237.812 0.10667000000000026
238.129 0.09667000000000003
238.447 0.11334
238.762 0.10000000000000009
239.08 0.08667000000000025
239.395 0.10667000000000026
239.712 0.0900000000000003
240.03 0.10667000000000026
240.345 0.09667000000000003
240.662 0.08667000000000025
240.978 0.13667000000000007
241.295 0.13334000000000001
241.61 0.08000000000000007
241.927 0.10334000000000021
242.245 0.11334
242.56 0.09333999999999998
242.877 0.10334000000000021
243.192 0.08334000000000019
243.51 0.12334000000000023
243.825 0.12667000000000028
244.142 0.11334
244.459 0.11000000000000032
244.774 0.12334000000000023
245.092 0.09667000000000003
245.407 0.09667000000000003
245.724 0.12667000000000028
246.039 0.10334000000000021
246.356 0.10667000000000026
246.671 0.12667000000000028
246.988 0.13334000000000001
247.303 0.09667000000000003
247.62 0.1200000000000001
247.938 0.11334
248.253 0.10000000000000009
248.57 0.10667000000000026
248.885 0.11000000000000032
249.202 0.0900000000000003
249.517 0.12334000000000023
249.834 0.11334
250.149 0.14000000000000012
250.466 0.11667000000000005
250.781 0.09667000000000003
251.098 0.14334000000000024
251.412 0.13667000000000007
251.729 0.12334000000000023
252.044 0.12667000000000028
252.361 0.13667000000000007
252.676 0.1466700000000003
252.993 0.12334000000000023
253.308 0.11334
253.625 0.16334000000000026
253.94 0.1200000000000001
254.256 0.1466700000000003
254.571 0.10000000000000009
254.888 0.13667000000000007
255.203 0.10667000000000026
255.518 0.1299999999999999
255.834 0.14000000000000012
256.149 0.0900000000000003
256.466 0.13334000000000001
256.781 0.1299999999999999
257.097 0.1200000000000001
257.412 0.12334000000000023
257.729 0.13667000000000007
258.044 0.1200000000000001
258.36 0.12334000000000023
258.675 0.11667000000000005
258.99 0.1200000000000001
259.306 0.14000000000000012
259.621 0.10000000000000009
259.938 0.11667000000000005
260.252 0.10667000000000026
260.569 0.09667000000000003
260.883 0.10334000000000021
261.198 0.10667000000000026
261.515 0.13667000000000007
261.829 0.10667000000000026
262.146 0.12667000000000028
262.46 0.13334000000000001
262.775 0.1200000000000001
263.091 0.10667000000000026
263.406 0.13334000000000001
263.723 0.1299999999999999
264.037 0.1200000000000001
264.354 0.1200000000000001
264.668 0.1200000000000001
264.982 0.11334
265.299 0.08667000000000025
265.613 0.11667000000000005
265.928 0.1200000000000001
266.244 0.08667000000000025
266.559 0.07000000000000028
266.875 0.0900000000000003
267.189 0.10334000000000021
267.504 0.10000000000000009
267.82 0.09667000000000003
268.134 0.10334000000000021
268.449 0.1200000000000001
268.765 0.10667000000000026
269.079 0.06667000000000023
269.394 0.1200000000000001
269.71 0.11334
270.024 0.10334000000000021
270.341 0.08667000000000025
270.655 0.10334000000000021
270.969 0.11000000000000032
271.286 0.09333999999999998
271.6 0.1200000000000001
271.914 0.07000000000000028
272.23 0.12667000000000028
272.544 0.12334000000000023
272.859 0.11000000000000032
273.175 0.10000000000000009
273.489 0.12334000000000023
273.803 0.0900000000000003
274.119 0.11000000000000032
274.433 0.1200000000000001
274.747 0.12334000000000023
275.062 0.1200000000000001
275.378 0.10334000000000021
275.692 0.11667000000000005
276.006 0.11334
276.322 0.09667000000000003
276.636 0.07000000000000028
276.95 0.15334000000000003
277.266 0.12667000000000028
277.58 0.10000000000000009
277.894 0.1299999999999999
278.208 0.10667000000000026
278.524 0.11334
278.838 0.11667000000000005
279.152 0.11000000000000032
279.468 0.13334000000000001
279.782 0.11000000000000032
280.096 0.12667000000000028
280.41 0.11000000000000032
280.726 0.12667000000000028
281.04 0.1566700000000001
281.354 0.14334000000000024
281.668 0.12667000000000028
281.983 0.1200000000000001
282.297 0.1466700000000003
282.611 0.1466700000000003
282.925 0.13667000000000007
283.241 0.12667000000000028
283.555 0.14334000000000024
283.868 0.1466700000000003
284.182 0.14334000000000024
284.498 0.15334000000000003
284.812 0.12334000000000023
285.126 0.11000000000000032
285.439 0.14000000000000012
285.753 0.11667000000000005
286.069 0.15334000000000003
286.383 0.12667000000000028
286.696 0.12334000000000023
287.01 0.14000000000000012
287.326 0.11334
287.639 0.10000000000000009
287.953 0.10667000000000026
288.267 0.12667000000000028
288.58 0.10334000000000021
288.896 0.10000000000000009
289.21 0.13667000000000007
289.523 0.13667000000000007
289.837 0.15334000000000003
290.15 0.13334000000000001
290.466 0.14000000000000012
290.78 0.1200000000000001
291.093 0.1200000000000001
291.407 0.09333999999999998
291.72 0.13334000000000001
292.034 0.12667000000000028
292.349 0.12667000000000028
292.663 0.11000000000000032
292.976 0.11000000000000032
293.29 0.12667000000000028
293.603 0.11667000000000005
293.917 0.11334
294.232 0.10000000000000009
294.546 0.10334000000000021
294.859 0.13667000000000007
295.172 0.1200000000000001
295.486 0.0900000000000003
295.799 0.11667000000000005
296.113 0.11334
296.428 0.10334000000000021
296.741 0.07667000000000002
297.055 0.1466700000000003
297.368 0.11334
297.681 0.1200000000000001
297.995 0.14334000000000024
298.308 0.12334000000000023
298.621 0.10667000000000026
298.937 0.11667000000000005
299.25 0.09667000000000003
299.563 0.12667000000000028
299.876 0.08334000000000019
300.19 0.1200000000000001
300.503 0.08667000000000025
300.816 0.14334000000000024
301.129 0.11334
301.442 0.1299999999999999
301.756 0.1200000000000001
302.071 0.11667000000000005
302.384 0.12334000000000023
302.697 0.11667000000000005
303.01 0.14334000000000024
303.323 0.11334
303.637 0.11667000000000005
303.95 0.12667000000000028
304.263 0.10667000000000026
304.576 0.12667000000000028
304.889 0.09333999999999998
305.202 0.11334
305.515 0.10000000000000009
305.828 0.11667000000000005
306.141 0.06667000000000023
306.456 0.11667000000000005
306.769 0.12334000000000023
307.082 0.10000000000000009
307.395 0.11000000000000032
307.708 0.10667000000000026
308.021 0.11000000000000032
308.334 0.12334000000000023
308.647 0.10334000000000021
308.96 0.11000000000000032
309.273 0.1299999999999999
309.586 0.11000000000000032
309.899 0.12334000000000023
310.212 0.11334
310.525 0.10667000000000026
310.838 0.11667000000000005
311.15 0.09667000000000003
311.463 0.10334000000000021
311.776 0.10667000000000026
312.089 0.12334000000000023
312.402 0.10000000000000009
312.715 0.13667000000000007
313.027 0.1299999999999999
313.34 0.12667000000000028
313.653 0.08334000000000019
313.966 0.1200000000000001
314.278 0.10000000000000009
314.591 0.13334000000000001
314.904 0.12667000000000028
315.217 0.10000000000000009
315.529 0.08000000000000007
315.842 0.14334000000000024
316.155 0.1200000000000001
316.467 0.11334
316.78 0.13334000000000001
317.093 0.1200000000000001
317.405 0.1200000000000001
317.718 0.1200000000000001
318.031 0.1299999999999999
318.343 0.1299999999999999
318.656 0.09333999999999998
318.969 0.12334000000000023
319.281 0.13334000000000001
319.592 0.1299999999999999
319.904 0.1299999999999999
320.217 0.16999999999999993
320.529 0.14334000000000024
320.842 0.12667000000000028
321.154 0.16000000000000014
321.467 0.11667000000000005
321.779 0.11334
322.092 0.1466700000000003
322.404 0.11334
322.717 0.1200000000000001
323.029 0.13667000000000007
323.342 0.12667000000000028
323.654 0.14000000000000012
323.965 0.1299999999999999
324.277 0.1566700000000001
324.589 0.13334000000000001
324.902 0.14334000000000024
325.214 0.1466700000000003
325.527 0.1499999999999999
325.839 0.12334000000000023
326.151 0.1466700000000003
326.464 0.17334000000000005
326.776 0.16999999999999993
327.086 0.17334000000000005
327.399 0.14334000000000024
327.711 0.1766700000000001
328.023 0.1566700000000001
328.335 0.19334000000000007
328.648 0.1766700000000001
328.96 0.1766700000000001
329.27 0.19334000000000007
329.582 0.18000000000000016
329.895 0.18334000000000028
330.207 0.21667000000000014
330.519 0.16334000000000026
330.831 0.21667000000000014
331.143 0.22334000000000032
331.454 0.1866699999999999
331.766 0.22334000000000032
332.078 0.2066699999999999
332.39 0.2433399999999999
332.702 0.21667000000000014
333.014 0.26000000000000023
333.326 0.2433399999999999
333.636 0.22666999999999993
333.948 0.2566700000000002
334.261 0.2200000000000002
334.573 0.2066699999999999
334.885 0.20999999999999996
335.195 0.2200000000000002
335.507 0.2200000000000002
335.819 0.19667000000000012
336.131 0.16999999999999993
336.443 0.16667000000000032
336.753 0.18999999999999995
337.065 0.17334000000000005
337.377 0.17334000000000005
337.689 0.1466700000000003
338.001 0.1566700000000001
338.31 0.1766700000000001
338.622 0.1566700000000001
338.934 0.16334000000000026
339.246 0.16999999999999993
339.558 0.1566700000000001
339.868 0.1866699999999999
340.18 0.1499999999999999
340.492 0.14000000000000012
340.804 0.16999999999999993
341.113 0.16000000000000014
341.425 0.16667000000000032
341.737 0.17334000000000005
342.049 0.1466700000000003
342.361 0.16667000000000032
342.67 0.14000000000000012
342.982 0.17334000000000005
343.294 0.1566700000000001
343.606 0.16999999999999993
343.915 0.19334000000000007
344.227 0.17334000000000005
344.539 0.18334000000000028
344.849 0.1766700000000001
345.16 0.1566700000000001
345.472 0.20999999999999996
345.784 0.21334000000000009
346.093 0.1566700000000001
346.405 0.18334000000000028
346.717 0.16667000000000032
347.028 0.18334000000000028
347.338 0.1766700000000001
347.649 0.20999999999999996
347.961 0.19334000000000007
348.271 0.1499999999999999
348.582 0.18999999999999995
348.894 0.18999999999999995
349.205 0.20999999999999996
349.515 0.1499999999999999
349.826 0.18334000000000028
350.138 0.16999999999999993
350.447 0.19667000000000012
350.759 0.18999999999999995
351.07 0.16667000000000032
351.38 0.18000000000000016
351.691 0.19667000000000012
352.003 0.19667000000000012
352.312 0.1499999999999999
352.624 0.16000000000000014
352.935 0.1566700000000001
353.245 0.20000000000000018
353.556 0.1766700000000001
353.867 0.1566700000000001
354.177 0.1766700000000001
354.488 0.17334000000000005
354.799 0.1466700000000003
355.109 0.19334000000000007
355.42 0.1566700000000001
355.732 0.16667000000000032
356.041 0.1566700000000001
356.352 0.17334000000000005
356.663 0.19334000000000007
356.973 0.1466700000000003
357.284 0.18000000000000016
357.593 0.17334000000000005
357.905 0.16999999999999993
358.216 0.16000000000000014
358.525 0.1466700000000003
358.836 0.16667000000000032
359.147 0.16667000000000032
359.457 0.18999999999999995
359.768 0.16999999999999993
360.077 0.18000000000000016
360.388 0.19334000000000007
360.699 0.15334000000000003
361.008 0.1766700000000001
361.32 0.1866699999999999
361.629 0.17334000000000005
361.94 0.1766700000000001
362.251 0.14000000000000012
362.56 0.20999999999999996
362.871 0.1766700000000001
363.18 0.18334000000000028
363.491 0.18000000000000016
363.8 0.17334000000000005
364.111 0.1766700000000001
364.422 0.16667000000000032
364.731 0.18999999999999995
365.042 0.16334000000000026
365.351 0.17334000000000005
365.662 0.16334000000000026
365.971 0.17334000000000005
366.282 0.17334000000000005
366.593 0.18999999999999995
366.902 0.16334000000000026
367.213 0.1866699999999999
367.522 0.19667000000000012
367.833 0.19334000000000007
368.142 0.20999999999999996
368.453 0.1766700000000001
368.762 0.17334000000000005
369.073 0.21667000000000014
369.381 0.16999999999999993
369.692 0.18999999999999995
370.001 0.1766700000000001
370.312 0.1766700000000001
370.623 0.16999999999999993
370.932 0.18000000000000016
371.242 0.1566700000000001
371.551 0.16667000000000032
371.862 0.18999999999999995
372.171 0.1499999999999999
372.482 0.18000000000000016
372.79 0.18334000000000028
373.101 0.16334000000000026
373.41 0.18999999999999995
373.721 0.16667000000000032
374.029 0.2033400000000003
374.34 0.13667000000000007
374.649 0.1866699999999999
374.959 0.16999999999999993
375.268 0.16667000000000032
375.577 0.17334000000000005
375.887 0.17334000000000005
376.196 0.14334000000000024
376.506 0.18334000000000028
376.815 0.18334000000000028
377.126 0.2333400000000001
377.434 0.16334000000000026
377.745 0.15334000000000003
378.053 0.14000000000000012
378.364 0.1766700000000001
378.672 0.16334000000000026
378.983 0.16000000000000014
379.292 0.1299999999999999
379.6 0.16999999999999993
379.911 0.1499999999999999
380.219 0.1766700000000001
380.53 0.16000000000000014
380.838 0.18000000000000016
381.148 0.16334000000000026
381.457 0.2066699999999999
381.767 0.16999999999999993
382.076 0.20999999999999996
382.384 0.2033400000000003
382.695 0.18334000000000028
383.003 0.2033400000000003
383.313 0.14000000000000012
383.622 0.18000000000000016
383.93 0.22334000000000032
384.24 0.19667000000000012
384.549 0.2033400000000003
384.859 0.18999999999999995
385.167 0.12667000000000028
385.476 0.19667000000000012
385.786 0.18999999999999995
386.094 0.19334000000000007
386.405 0.18999999999999995
386.713 0.16667000000000032
387.021 0.2200000000000002
387.331 0.18999999999999995
387.64 0.16667000000000032
387.948 0.16000000000000014
388.258 0.16999999999999993
388.566 0.20000000000000018
388.877 0.21334000000000009
389.185 0.2200000000000002
389.493 0.1766700000000001
389.803 0.18999999999999995
390.111 0.20999999999999996
390.419 0.2033400000000003
390.729 0.2200000000000002
391.038 0.17334000000000005
391.346 0.2033400000000003
391.656 0.19334000000000007
391.964 0.19667000000000012
392.272 0.19667000000000012
392.582 0.2533400000000001
392.89 0.1866699999999999
393.198 0.19667000000000012
393.508 0.21667000000000014
393.816 0.20000000000000018
394.124 0.19334000000000007
394.434 0.20999999999999996
394.742 0.16667000000000032
395.05 0.2066699999999999
395.36 0.18334000000000028
395.668 0.18999999999999995
395.976 0.18000000000000016
396.286 0.2033400000000003
396.594 0.20000000000000018
396.902 0.2066699999999999
397.21 0.1766700000000001
397.52 0.2033400000000003
397.828 0.16999999999999993
398.135 0.16667000000000032
398.445 0.19334000000000007
398.753 0.1866699999999999
399.061 0.18334000000000028
399.369 0.18334000000000028
399.679 0.16999999999999993
399.987 0.2200000000000002
400.294 0.1766700000000001
400.604 0.22999999999999998
400.912 0.20999999999999996
401.22 0.18000000000000016
401.527 0.19667000000000012
401.837 0.18334000000000028
402.145 0.2200000000000002
402.453 0.18999999999999995
402.76 0.2200000000000002
403.07 0.2066699999999999
403.378 0.2200000000000002
403.686 0.18334000000000028
403.993 0.2200000000000002
404.303 0.2333400000000001
404.611 0.20999999999999996
404.918 0.22334000000000032
405.226 0.22334000000000032
405.533 0.19667000000000012
405.843 0.2200000000000002
406.151 0.2533400000000001
406.458 0.2200000000000002
406.766 0.20000000000000018
407.076 0.23667000000000016
407.383 0.20999999999999996
407.691 0.22666999999999993
407.998 0.2400000000000002
408.306 0.23667000000000016
408.615 0.21334000000000009
408.923 0.24666999999999994
409.23 0.2433399999999999
409.538 0.26000000000000023
409.845 0.23667000000000016
410.153 0.21667000000000014
410.462 0.26000000000000023
410.77 0.2566700000000002
411.077 0.27
411.384 0.22334000000000032
411.692 0.26666999999999996
412.001 0.29000000000000004
412.309 0.27
412.616 0.2766700000000002
412.923 0.2633399999999999
413.231 0.26666999999999996
413.538 0.27334000000000014
413.845 0.28000000000000025
414.155 0.28667
414.462 0.30000000000000027
414.769 0.27334000000000014
415.077 0.30667
415.384 0.30667
415.691 0.32667000000000046
415.999 0.35333999999999977
416.308 0.36999999999999966
416.615 0.3166699999999998
416.922 0.36999999999999966
417.23 0.3733400000000002
417.537 0.3933399999999998
417.844 0.34667000000000003
418.151 0.39666999999999986
418.458 0.43333999999999984
418.768 0.4033400000000005
419.075 0.4600000000000004
419.382 0.5000000000000004
419.689 0.5100000000000002
419.996 0.4966700000000004
420.303 0.5133399999999999
420.61 0.5633399999999997
420.918 0.6400000000000001
421.225 0.5833400000000002
421.532 0.6266700000000003
421.841 0.7366699999999997
422.148 0.7633399999999999
422.455 0.7866700000000004
422.762 0.8133399999999997
423.069 0.9099999999999997
423.376 0.8999999999999999
423.683 0.9433400000000005
423.99 1.01334
424.297 0.9499999999999997
424.604 1.0266699999999997
424.911 1.1
425.218 1.1233400000000002
425.525 1.1233400000000002
425.832 1.09334
426.139 1.0900000000000003
426.446 1.1633400000000003
426.753 1.1166700000000005
427.061 1.0466700000000002
427.368 1.19
427.675 1.15
427.982 1.06
428.289 1.0500000000000003
428.596 1.13667
428.903 0.9300000000000002
429.209 0.9366699999999999
429.516 0.9366699999999999
429.823 0.9466699999999997
430.13 0.8933399999999998
430.437 0.7933400000000002
430.743 0.8166699999999998
431.05 0.6933400000000005
431.357 0.7066700000000004
431.664 0.6700000000000004
431.97 0.6133400000000004
432.277 0.6633400000000003
432.584 0.6066699999999998
432.891 0.5500000000000003
433.197 0.5366700000000004
433.504 0.5366700000000004
433.811 0.4966700000000004
434.117 0.49334000000000033
434.424 0.47333999999999987
434.731 0.4366699999999999
435.037 0.4466699999999997
435.344 0.43000000000000016
435.65 0.4099999999999997
435.957 0.4099999999999997
436.262 0.4099999999999997
436.568 0.39666999999999986
436.875 0.4033400000000005
437.181 0.3933399999999998
437.488 0.3999999999999999
437.794 0.3566699999999998
438.101 0.31333999999999973
438.407 0.3233400000000004
438.714 0.3666700000000005
439.02 0.29334000000000016
439.327 0.32667000000000046
439.633 0.34667000000000003
439.94 0.31999999999999984
440.246 0.3566699999999998
440.553 0.3166699999999998
440.859 0.23667000000000016
441.163 0.30333999999999994
441.47 0.29000000000000004
441.776 0.29334000000000016
442.083 0.2766700000000002
442.389 0.26000000000000023
442.695 0.29334000000000016
443.002 0.2766700000000002
443.308 0.26666999999999996
443.614 0.26000000000000023
443.921 0.23667000000000016
444.225 0.2633399999999999
444.531 0.2966700000000002
444.838 0.27334000000000014
445.144 0.27334000000000014
445.45 0.25
445.757 0.30333999999999994
446.063 0.2833399999999999
446.369 0.2633399999999999
446.675 0.2633399999999999
446.979 0.2433399999999999
447.286 0.27334000000000014
447.592 0.30333999999999994
447.898 0.27334000000000014
448.204 0.25
448.51 0.2833399999999999
448.817 0.2633399999999999
449.121 0.27
449.427 0.29334000000000016
449.733 0.2766700000000002
450.039 0.27334000000000014
450.345 0.29334000000000016
450.651 0.31000000000000005
450.955 0.24666999999999994
451.261 0.29334000000000016
451.568 0.2833399999999999
451.874 0.30333999999999994
452.18 0.30333999999999994
452.486 0.28000000000000025
452.79 0.2833399999999999
453.096 0.2533400000000001
453.402 0.2533400000000001
453.708 0.28667
454.014 0.2400000000000002
454.318 0.22666999999999993
454.624 0.2766700000000002
454.93 0.2533400000000001
455.236 0.29000000000000004
455.541 0.27
455.845 0.2633399999999999
456.151 0.2633399999999999
456.457 0.27
456.763 0.29334000000000016
457.067 0.25
457.373 0.25
457.679 0.23667000000000016
457.985 0.25
458.29 0.23667000000000016
458.594 0.2400000000000002
458.9 0.23667000000000016
459.206 0.2333400000000001
459.512 0.23667000000000016
459.815 0.2200000000000002
460.121 0.25
460.427 0.2433399999999999
460.733 0.20000000000000018
461.036 0.20999999999999996
461.342 0.2533400000000001
461.648 0.24666999999999994
461.954 0.18999999999999995
462.257 0.22999999999999998
462.563 0.2200000000000002
462.869 0.20000000000000018
463.172 0.2066699999999999
463.478 0.2566700000000002
463.784 0.20000000000000018
464.089 0.18999999999999995
464.393 0.20999999999999996
464.699 0.2633399999999999
465.004 0.2333400000000001
465.308 0.22334000000000032
465.613 0.2533400000000001
465.919 0.18000000000000016
466.225 0.2333400000000001
466.528 0.2200000000000002
466.834 0.2533400000000001
467.139 0.2200000000000002
467.443 0.19667000000000012
467.748 0.22999999999999998
468.054 0.19667000000000012
468.357 0.20000000000000018
468.663 0.20999999999999996
468.968 0.20999999999999996
469.272 0.22999999999999998
469.577 0.22666999999999993
469.883 0.18000000000000016
470.186 0.2433399999999999
470.492 0.22666999999999993
470.797 0.21667000000000014
471.1 0.2400000000000002
471.406 0.2433399999999999
471.711 0.21667000000000014
472.014 0.2200000000000002
472.32 0.2533400000000001
472.625 0.22666999999999993
472.929 0.2400000000000002
473.234 0.21667000000000014
473.539 0.22334000000000032
473.843 0.2566700000000002
474.148 0.26000000000000023
474.451 0.21667000000000014
474.756 0.25
475.062 0.2400000000000002
475.365 0.2633399999999999
475.67 0.2533400000000001
475.973 0.2833399999999999
476.279 0.2766700000000002
476.584 0.2566700000000002
476.887 0.30000000000000027
477.192 0.3233400000000004
477.498 0.3166699999999998
477.801 0.3300000000000005
478.106 0.4166700000000003
478.409 0.48
478.714 0.5400000000000005
479.017 0.5666699999999998
479.322 0.56
479.628 0.5866700000000002
479.931 0.6666700000000003
480.236 0.59667
480.539 0.6466699999999999
480.844 0.6366700000000001
481.147 0.6800000000000002
481.452 0.6233400000000002
481.757 0.6366700000000001
482.06 0.6800000000000002
482.365 0.6466699999999999
482.668 0.6033399999999998
482.973 0.6633400000000003
483.276 0.7266699999999999
483.581 0.63334
483.884 0.5833400000000002
484.189 0.5833400000000002
484.494 0.5133399999999999
484.797 0.4533400000000003
485.102 0.3900000000000001
485.405 0.3666700000000005
485.71 0.34334
486.013 0.3566699999999998
486.318 0.34667000000000003
486.621 0.3166699999999998
486.925 0.3300000000000005
487.228 0.30000000000000027
487.533 0.34667000000000003
487.836 0.30000000000000027
488.141 0.2400000000000002
488.444 0.2833399999999999
488.748 0.2833399999999999
489.051 0.27334000000000014
489.356 0.21667000000000014
489.659 0.21334000000000009
489.964 0.2433399999999999
490.266 0.2533400000000001
490.571 0.2533400000000001
490.874 0.20999999999999996
491.179 0.22999999999999998
491.481 0.2200000000000002
491.786 0.26666999999999996
492.089 0.2066699999999999
492.393 0.22999999999999998
492.696 0.22999999999999998
493.001 0.2333400000000001
493.303 0.2333400000000001
493.606 0.24666999999999994
493.911 0.23667000000000016
494.213 0.21667000000000014
494.518 0.22334000000000032
494.821 0.20000000000000018
495.125 0.2333400000000001
495.428 0.1866699999999999
495.732 0.2066699999999999
496.035 0.16667000000000032
496.337 0.1766700000000001
496.642 0.21334000000000009
496.945 0.16667000000000032
497.249 0.2200000000000002
497.552 0.21667000000000014
497.856 0.22999999999999998
498.159 0.21334000000000009
498.461 0.1866699999999999
498.766 0.24666999999999994
499.068 0.18000000000000016
499.372 0.19334000000000007
499.675 0.2200000000000002
499.977 0.15334000000000003
500.282 0.19334000000000007
500.584 0.16999999999999993
500.889 0.20999999999999996
501.191 0.22666999999999993
501.493 0.2033400000000003
501.798 0.20000000000000018
502.1 0.18000000000000016
502.402 0.21667000000000014
502.707 0.20000000000000018
503.009 0.22666999999999993
503.314 0.1766700000000001
503.616 0.17334000000000005
503.918 0.2033400000000003
504.222 0.15334000000000003
504.525 0.16334000000000026
504.827 0.18999999999999995
505.131 0.18999999999999995
505.433 0.17334000000000005
505.736 0.1866699999999999
506.04 0.21667000000000014
506.342 0.19667000000000012
506.646 0.21667000000000014
506.949 0.1866699999999999
507.251 0.18334000000000028
507.555 0.1866699999999999
507.857 0.17334000000000005
508.159 0.22666999999999993
508.461 0.1766700000000001
508.766 0.2033400000000003
509.068 0.16334000000000026
509.37 0.21667000000000014
509.674 0.17334000000000005
509.976 0.20000000000000018
510.278 0.16334000000000026
510.582 0.16334000000000026
510.884 0.16999999999999993
511.186 0.18334000000000028
511.49 0.16000000000000014
511.792 0.16000000000000014
512.094 0.18334000000000028
512.396 0.18999999999999995
512.701 0.20999999999999996
513.003 0.1566700000000001
513.305 0.1566700000000001
513.609 0.2066699999999999
513.91 0.19667000000000012
514.212 0.19667000000000012
514.514 0.20000000000000018
514.818 0.19334000000000007
515.12 0.19667000000000012
515.422 0.18334000000000028
515.724 0.1766700000000001
516.028 0.18334000000000028
516.33 0.2033400000000003
516.632 0.1566700000000001
516.934 0.16667000000000032
517.237 0.2033400000000003
517.539 0.16334000000000026
517.841 0.1766700000000001
518.143 0.20000000000000018
518.447 0.20000000000000018
518.749 0.20000000000000018
519.05 0.1866699999999999
519.352 0.1766700000000001
519.656 0.1866699999999999
519.958 0.2066699999999999
520.26 0.17334000000000005
520.561 0.19334000000000007
520.863 0.20999999999999996
521.167 0.20000000000000018
521.468 0.22999999999999998
521.77 0.1866699999999999
522.072 0.2200000000000002
522.376 0.18334000000000028
522.677 0.22666999999999993
522.979 0.23667000000000016
523.281 0.20000000000000018
523.582 0.22334000000000032
523.884 0.22334000000000032
524.187 0.19334000000000007
524.489 0.26666999999999996
524.791 0.2200000000000002
525.092 0.19334000000000007
525.394 0.20000000000000018
525.697 0.22334000000000032
525.999 0.25
526.301 0.22334000000000032
526.602 0.2633399999999999
526.904 0.2033400000000003
527.205 0.20000000000000018
527.507 0.22999999999999998
527.81 0.20999999999999996
528.112 0.23667000000000016
528.413 0.18334000000000028
528.715 0.21334000000000009
529.016 0.19667000000000012
529.318 0.22334000000000032
529.619 0.19667000000000012
529.922 0.21334000000000009
530.224 0.22999999999999998
530.525 0.21334000000000009
530.827 0.20999999999999996
531.128 0.18000000000000016
531.429 0.23667000000000016
531.731 0.20999999999999996
532.032 0.23667000000000016
532.336 0.20000000000000018
532.637 0.2066699999999999
532.938 0.18334000000000028
533.24 0.21667000000000014
533.541 0.2066699999999999
533.842 0.18334000000000028
534.143 0.19667000000000012
534.445 0.18000000000000016
534.746 0.2433399999999999
535.047 0.23667000000000016
535.351 0.22999999999999998
535.652 0.2033400000000003
535.953 0.22999999999999998
536.254 0.2200000000000002
536.555 0.1866699999999999
536.857 0.2066699999999999
537.158 0.1866699999999999
537.459 0.2200000000000002
537.76 0.21334000000000009
538.061 0.22666999999999993
538.362 0.23667000000000016
538.664 0.2066699999999999
538.965 0.2400000000000002
539.266 0.19667000000000012
539.567 0.2400000000000002
539.868 0.1866699999999999
540.169 0.2033400000000003
540.472 0.22334000000000032
540.773 0.20999999999999996
541.074 0.20000000000000018
541.375 0.2033400000000003
541.677 0.18999999999999995
541.978 0.25
542.279 0.2066699999999999
542.58 0.21334000000000009
542.881 0.26000000000000023
543.182 0.18334000000000028
543.483 0.22334000000000032
543.784 0.2533400000000001
544.085 0.2200000000000002
544.385 0.2200000000000002
544.686 0.18000000000000016
544.987 0.23667000000000016
545.288 0.2400000000000002
545.589 0.2633399999999999
545.89 0.26000000000000023
546.191 0.22334000000000032
546.492 0.2433399999999999
546.793 0.19334000000000007
547.094 0.2533400000000001
547.394 0.21667000000000014
547.695 0.2566700000000002
547.996 0.20999999999999996
548.297 0.2400000000000002
548.596 0.2433399999999999
548.897 0.2633399999999999
549.197 0.25
549.498 0.29000000000000004
549.799 0.25
550.1 0.2766700000000002
550.4 0.29334000000000016
550.701 0.30000000000000027
551.002 0.26000000000000023
551.303 0.2766700000000002
551.603 0.30667
551.904 0.35333999999999977
552.205 0.34667000000000003
552.505 0.30333999999999994
552.806 0.36334000000000044
553.107 0.3400000000000003
553.407 0.35333999999999977
553.706 0.3766700000000003
554.007 0.3500000000000001
554.307 0.3666700000000005
554.608 0.38667000000000007
554.909 0.34667000000000003
555.209 0.3999999999999999
555.51 0.38000000000000034
555.81 0.3566699999999998
556.111 0.3900000000000001
556.411 0.4166700000000003
556.71 0.4200000000000004
557.01 0.3500000000000001
557.311 0.43999999999999995
557.612 0.36999999999999966
557.912 0.3300000000000005
558.213 0.3733400000000002
558.513 0.3733400000000002
558.813 0.3599999999999999
559.112 0.31999999999999984
559.412 0.32667000000000046
559.713 0.36334000000000044
560.013 0.31000000000000005
560.314 0.27
560.614 0.2766700000000002
560.914 0.3233400000000004
561.213 0.27
561.513 0.28000000000000025
561.814 0.2633399999999999
562.114 0.2566700000000002
562.414 0.30333999999999994
562.715 0.24666999999999994
563.015 0.27
563.313 0.28667
563.614 0.24666999999999994
563.914 0.27334000000000014
564.214 0.2400000000000002
564.515 0.27334000000000014
564.813 0.28667
565.113 0.2433399999999999
565.413 0.2566700000000002
565.714 0.26000000000000023
566.014 0.2566700000000002
566.312 0.22334000000000032
566.612 0.26666999999999996
566.912 0.2333400000000001
567.213 0.21334000000000009
567.513 0.2400000000000002
567.811 0.23667000000000016
568.111 0.22334000000000032
568.411 0.21667000000000014
568.712 0.2200000000000002
569.012 0.22666999999999993
569.31 0.21667000000000014
569.61 0.2033400000000003
569.91 0.23667000000000016
570.21 0.21667000000000014
570.508 0.22666999999999993
570.808 0.2400000000000002
571.108 0.2433399999999999
571.408 0.2400000000000002
571.706 0.19667000000000012
572.006 0.21334000000000009
572.306 0.2200000000000002
572.607 0.21334000000000009
572.904 0.21334000000000009
573.204 0.2066699999999999
573.505 0.22334000000000032
573.805 0.22334000000000032
574.102 0.2066699999999999
574.402 0.22666999999999993
574.702 0.2200000000000002
575.002 0.2333400000000001
575.3 0.23667000000000016
575.6 0.2066699999999999
575.9 0.18000000000000016
576.198 0.2200000000000002
576.498 0.22334000000000032
576.798 0.21667000000000014
577.098 0.22334000000000032
577.395 0.20000000000000018
577.695 0.2400000000000002
577.995 0.19667000000000012
578.293 0.2633399999999999
578.593 0.16000000000000014
578.893 0.21334000000000009
579.19 0.2333400000000001
579.49 0.22666999999999993
579.79 0.2200000000000002
580.088 0.20000000000000018
580.387 0.22334000000000032
580.687 0.16999999999999993
580.985 0.21667000000000014
581.285 0.2066699999999999
581.584 0.21334000000000009
581.882 0.22999999999999998
582.182 0.21667000000000014
582.482 0.18999999999999995
582.779 0.19334000000000007
583.079 0.18334000000000028
583.378 0.2433399999999999
583.676 0.22666999999999993
583.976 0.2033400000000003
584.275 0.20000000000000018
584.573 0.21667000000000014
584.873 0.21667000000000014
585.17 0.18999999999999995
585.47 0.19334000000000007
585.769 0.19667000000000012
586.067 0.2400000000000002
586.367 0.2333400000000001
586.666 0.16000000000000014
586.964 0.2200000000000002
587.263 0.22334000000000032
587.561 0.19667000000000012
587.86 0.18334000000000028
588.16 0.21334000000000009
588.457 0.2400000000000002
588.757 0.19334000000000007
589.054 0.20000000000000018
589.354 0.2333400000000001
589.653 0.2333400000000001
589.951 0.2766700000000002
590.25 0.26000000000000023
590.547 0.22334000000000032
590.847 0.22334000000000032
591.144 0.2200000000000002
591.444 0.2533400000000001
591.743 0.2200000000000002
592.04 0.22999999999999998
592.34 0.2066699999999999
592.637 0.2066699999999999
592.936 0.24666999999999994
593.234 0.2033400000000003
593.533 0.19667000000000012
593.832 0.19667000000000012
594.13 0.21667000000000014
594.429 0.2033400000000003
594.726 0.19667000000000012
595.026 0.2200000000000002
595.323 0.21667000000000014
595.622 0.15334000000000003
595.919 0.2433399999999999
596.219 0.1866699999999999
596.516 0.20999999999999996
596.815 0.22666999999999993
597.112 0.25
597.411 0.21334000000000009
597.709 0.2400000000000002
598.008 0.19667000000000012
598.305 0.18334000000000028
598.604 0.22999999999999998
598.901 0.21667000000000014
599.2 0.1766700000000001
599.497 0.22666999999999993
599.797 0.20999999999999996
600.094 0.1866699999999999
600.393 0.20000000000000018
600.69 0.21667000000000014
600.989 0.2633399999999999
601.286 0.18999999999999995
601.585 0.20000000000000018
601.882 0.19667000000000012
602.181 0.18334000000000028
602.478 0.22666999999999993
602.777 0.21667000000000014
603.074 0.2066699999999999
603.373 0.2066699999999999
603.67 0.2533400000000001
603.969 0.22334000000000032
604.266 0.20000000000000018
604.563 0.20000000000000018
604.862 0.21334000000000009
605.159 0.2433399999999999
605.458 0.23667000000000016
605.755 0.20000000000000018
606.054 0.22666999999999993
606.351 0.22666999999999993
606.65 0.26666999999999996
606.946 0.2766700000000002
607.243 0.21667000000000014
607.542 0.2433399999999999
607.839 0.21334000000000009
608.138 0.21334000000000009
608.435 0.21334000000000009
608.732 0.27334000000000014
609.03 0.22999999999999998
609.327 0.3166699999999998
609.626 0.2966700000000002
609.923 0.2333400000000001
610.22 0.2966700000000002
610.518 0.26000000000000023
610.815 0.29000000000000004
611.114 0.28667
611.411 0.30000000000000027
611.707 0.33667000000000025
612.006 0.31000000000000005
612.303 0.31000000000000005
612.601 0.35333999999999977
612.898 0.28667
613.195 0.29000000000000004
613.493 0.32667000000000046
613.79 0.29000000000000004
614.087 0.30000000000000027
614.385 0.2766700000000002
614.682 0.2833399999999999
614.979 0.31333999999999973
615.277 0.34334
615.574 0.27
615.87 0.3233400000000004
616.169 0.30667
616.466 0.3233400000000004
616.764 0.29334000000000016
617.061 0.28000000000000025
617.357 0.2966700000000002
617.656 0.27
617.952 0.27334000000000014
618.249 0.2533400000000001
618.545 0.29334000000000016
618.844 0.2533400000000001
619.14 0.22999999999999998
619.437 0.25
619.735 0.27334000000000014
620.032 0.2566700000000002
620.328 0.25
620.626 0.2766700000000002
620.923 0.22334000000000032
621.219 0.2533400000000001
621.518 0.2400000000000002
621.814 0.21334000000000009
622.11 0.19667000000000012
622.407 0.21667000000000014
622.705 0.2433399999999999
623.002 0.21334000000000009
623.298 0.19667000000000012
623.594 0.19667000000000012
623.893 0.22999999999999998
624.189 0.22999999999999998
624.485 0.2333400000000001
624.784 0.20999999999999996
625.08 0.21334000000000009
625.376 0.20000000000000018
625.672 0.2200000000000002
625.971 0.21334000000000009
626.267 0.20999999999999996
626.563 0.22334000000000032
626.859 0.21667000000000014
627.158 0.1866699999999999
627.454 0.25
627.75 0.18999999999999995
628.046 0.2066699999999999
628.342 0.2066699999999999
628.641 0.21334000000000009
628.937 0.2033400000000003
629.233 0.26666999999999996
629.529 0.22666999999999993
629.827 0.2066699999999999
630.123 0.19667000000000012
630.419 0.22334000000000032
630.715 0.22666999999999993
631.011 0.1866699999999999
631.31 0.21334000000000009
631.606 0.1866699999999999
631.902 0.19334000000000007
632.198 0.24666999999999994
632.494 0.2400000000000002
632.792 0.22999999999999998
633.088 0.24666999999999994
633.384 0.22334000000000032
633.68 0.21334000000000009
633.976 0.22666999999999993
634.272 0.19667000000000012
634.57 0.20999999999999996
634.866 0.21667000000000014
635.162 0.22666999999999993
635.458 0.2066699999999999
635.754 0.20999999999999996
636.05 0.20000000000000018
636.347 0.23667000000000016
636.643 0.19667000000000012
636.939 0.2200000000000002
637.235 0.20000000000000018
637.531 0.2533400000000001
637.827 0.2066699999999999
638.123 0.22999999999999998
638.421 0.19334000000000007
638.716 0.20999999999999996
639.012 0.19334000000000007
639.308 0.22999999999999998
639.604 0.19334000000000007
639.9 0.21334000000000009
640.195 0.21667000000000014
640.491 0.20000000000000018
640.789 0.22999999999999998
641.085 0.2066699999999999
641.381 0.20000000000000018
641.676 0.21334000000000009
641.972 0.21667000000000014
642.268 0.2333400000000001
642.563 0.20000000000000018
642.859 0.2033400000000003
643.155 0.21334000000000009
643.451 0.21334000000000009
643.746 0.21667000000000014
644.044 0.21667000000000014
644.34 0.2400000000000002
644.635 0.22666999999999993
644.931 0.2033400000000003
645.227 0.18999999999999995
645.522 0.20000000000000018
645.818 0.2200000000000002
646.113 0.18334000000000028
646.409 0.1866699999999999
646.704 0.2400000000000002
647.0 0.24666999999999994
647.296 0.18334000000000028
647.591 0.2433399999999999
647.887 0.2333400000000001
648.182 0.24666999999999994
648.478 0.21667000000000014
648.773 0.2400000000000002
649.069 0.25
649.366 0.23667000000000016
649.662 0.2433399999999999
649.957 0.2533400000000001
650.253 0.21667000000000014
650.548 0.2433399999999999
650.844 0.2633399999999999
651.139 0.2633399999999999
651.434 0.2533400000000001
651.73 0.26666999999999996
652.025 0.2400000000000002
652.321 0.22334000000000032
652.616 0.2200000000000002
652.911 0.2766700000000002
653.207 0.22666999999999993
653.502 0.26666999999999996
653.797 0.2766700000000002
654.093 0.27334000000000014
654.388 0.27
654.683 0.29000000000000004
654.979 0.29334000000000016
655.274 0.2833399999999999
655.567 0.3233400000000004
655.863 0.30667
656.158 0.33667000000000025
656.453 0.30667
656.748 0.3400000000000003
657.044 0.36334000000000044
657.339 0.36999999999999966
657.634 0.4033400000000005
657.929 0.3500000000000001
658.224 0.3933399999999998
658.52 0.38667000000000007
658.815 0.35333999999999977
659.11 0.4033400000000005
659.405 0.4166700000000003
659.7 0.4766699999999999
659.995 0.3999999999999999
660.291 0.48
660.586 0.46667000000000014
660.879 0.3933399999999998
661.174 0.4600000000000004
661.469 0.49334000000000033
661.764 0.4600000000000004
662.059 0.4633400000000001
662.354 0.5100000000000002
662.649 0.4099999999999997
662.944 0.43999999999999995
663.239 0.45667000000000035
663.534 0.45667000000000035
663.83 0.47333999999999987
664.122 0.44999999999999973
664.417 0.40667000000000053
664.713 0.4099999999999997
665.008 0.3900000000000001
665.302 0.39666999999999986
665.597 0.4033400000000005
665.892 0.3900000000000001
666.187 0.3400000000000003
666.48 0.36334000000000044
666.775 0.3733400000000002
667.07 0.32667000000000046
667.365 0.35333999999999977
667.66 0.3599999999999999
667.955 0.30333999999999994
668.25 0.3233400000000004
668.542 0.2766700000000002
668.837 0.30667
669.132 0.29000000000000004
669.427 0.33667000000000025
669.722 0.31333999999999973
670.017 0.28667
670.31 0.26666999999999996
670.604 0.27
670.899 0.25
671.194 0.28667
671.489 0.26666999999999996
671.783 0.2766700000000002
672.076 0.2533400000000001
672.371 0.26000000000000023
672.666 0.2433399999999999
672.96 0.24666999999999994
673.255 0.27
673.548 0.2400000000000002
673.842 0.25
674.137 0.24666999999999994
674.432 0.2200000000000002
674.727 0.23667000000000016
675.019 0.2333400000000001
675.314 0.2566700000000002
675.608 0.22999999999999998
675.903 0.2400000000000002
676.196 0.21334000000000009
676.49 0.22666999999999993
676.785 0.29334000000000016
677.079 0.22999999999999998
677.374 0.20000000000000018
677.667 0.22999999999999998
677.961 0.2400000000000002
678.256 0.21667000000000014
678.55 0.18000000000000016
678.843 0.20999999999999996
679.137 0.2333400000000001
679.432 0.22334000000000032
679.726 0.22666999999999993
680.019 0.16999999999999993
680.313 0.22666999999999993
680.608 0.22999999999999998
680.902 0.21667000000000014
681.195 0.20000000000000018
681.489 0.2066699999999999
681.784 0.23667000000000016
682.076 0.22666999999999993
682.37 0.22334000000000032
682.665 0.2433399999999999
682.959 0.19667000000000012
683.252 0.22666999999999993
683.546 0.21334000000000009
683.84 0.2433399999999999
684.133 0.20000000000000018
684.427 0.21334000000000009
684.721 0.22999999999999998
685.014 0.22999999999999998
685.308 0.23667000000000016
685.602 0.19667000000000012
685.895 0.19667000000000012
686.189 0.2333400000000001
686.483 0.2200000000000002
686.778 0.21334000000000009
687.07 0.19334000000000007
687.364 0.21667000000000014
687.658 0.1866699999999999
687.951 0.18999999999999995
688.245 0.20000000000000018
688.537 0.23667000000000016
688.831 0.19667000000000012
689.125 0.23667000000000016
689.418 0.19667000000000012
689.712 0.22666999999999993
690.006 0.19667000000000012
690.298 0.2066699999999999
690.592 0.18334000000000028
690.886 0.20999999999999996
691.178 0.22666999999999993
691.473 0.22666999999999993
691.767 0.22666999999999993
692.059 0.25
692.353 0.20000000000000018
692.645 0.21334000000000009
692.939 0.2333400000000001
693.233 0.25
693.525 0.1866699999999999
693.819 0.22999999999999998
694.111 0.22999999999999998
694.405 0.22999999999999998
694.699 0.21667000000000014
694.991 0.2033400000000003
695.285 0.19667000000000012
695.577 0.22334000000000032
695.871 0.21667000000000014
696.165 0.18334000000000028
696.457 0.2033400000000003
696.751 0.20000000000000018
697.043 0.21667000000000014
697.337 0.2033400000000003
697.629 0.21667000000000014
697.923 0.18999999999999995
698.217 0.21667000000000014
698.509 0.22334000000000032
698.802 0.22334000000000032
699.094 0.2033400000000003
699.388 0.20999999999999996
699.68 0.2200000000000002
699.974 0.2400000000000002
700.266 0.2400000000000002
700.56 0.21667000000000014
700.853 0.19667000000000012
701.145 0.18999999999999995
701.439 0.20000000000000018
701.731 0.22666999999999993
702.025 0.2066699999999999
702.316 0.2533400000000001
702.61 0.22999999999999998
702.902 0.2200000000000002
703.196 0.2400000000000002
703.487 0.22999999999999998
703.781 0.2400000000000002
704.073 0.2033400000000003
704.367 0.2200000000000002
704.658 0.22334000000000032
704.952 0.23667000000000016
705.244 0.2066699999999999
705.537 0.21334000000000009
705.829 0.2066699999999999
706.122 0.17334000000000005
706.414 0.20000000000000018
706.708 0.22666999999999993
706.999 0.18999999999999995
707.293 0.21334000000000009
