# Created: 2019-11-28 14:14:36.538376
# rshift intensity
76.1738 0.12333000000000016
76.4989 0.11333000000000037
76.824 0.13000000000000034
77.1491 0.15000000000000036
77.4721 0.14666000000000023
77.7972 0.1533300000000004
78.1223 0.11000000000000032
78.4474 0.0766600000000004
78.7724 0.07333000000000034
79.0975 0.046660000000000146
79.4204 0.020000000000000018
79.7454 0.05666000000000038
80.0704 0.050000000000000266
80.3954 0.05666000000000038
80.7204 0.033330000000000304
81.0454 0.033330000000000304
81.3682 0.01666000000000034
81.6931 0.00666000000000011
82.0181 0.03000000000000025
82.343 0.05333000000000032
82.6679 0.050000000000000266
82.9907 0.023330000000000073
83.3156 0.04333000000000009
83.6405 0.04333000000000009
83.9654 0.01666000000000034
84.2903 0.023330000000000073
84.613 0.033330000000000304
84.9378 0.050000000000000266
85.2626 0.03666000000000036
85.5875 0.03666000000000036
85.9101 0.040000000000000036
86.2349 0.040000000000000036
86.5597 0.04333000000000009
86.8845 0.05333000000000032
87.2093 0.05666000000000038
87.5319 0.033330000000000304
87.8566 0.03666000000000036
88.1814 0.05333000000000032
88.5061 0.01666000000000034
88.8286 0.023330000000000073
89.1533 0.04333000000000009
89.478 0.026660000000000128
89.8027 0.0
90.1252 0.05333000000000032
90.4499 0.020000000000000018
90.7745 0.050000000000000266
91.0992 0.023330000000000073
91.4216 0.033330000000000304
91.7462 0.03000000000000025
92.0708 0.050000000000000266
92.3954 0.040000000000000036
92.7179 0.06000000000000005
93.0424 0.06666000000000016
93.367 0.046660000000000146
93.6915 0.03000000000000025
94.0139 0.03000000000000025
94.3384 0.03000000000000025
94.6629 0.03666000000000036
94.9853 0.050000000000000266
95.3098 0.033330000000000304
95.6342 0.03666000000000036
95.9587 0.05333000000000032
96.281 0.04333000000000009
96.6055 0.03666000000000036
96.9299 0.050000000000000266
97.2522 0.026660000000000128
97.5766 0.026660000000000128
97.901 0.040000000000000036
98.2232 0.01666000000000034
98.5476 0.050000000000000266
98.8719 0.01666000000000034
99.1942 0.03666000000000036
99.5185 0.020000000000000018
99.8428 0.04333000000000009
100.165 0.03000000000000025
100.489 0.020000000000000018
100.814 0.020000000000000018
101.136 0.033330000000000304
101.46 0.023330000000000073
101.784 0.04333000000000009
102.106 0.046660000000000146
102.431 0.05666000000000038
102.755 0.05666000000000038
103.077 0.04333000000000009
103.401 0.026660000000000128
103.725 0.04333000000000009
104.047 0.06000000000000005
104.372 0.046660000000000146
104.696 0.06333000000000011
105.018 0.07333000000000034
105.342 0.04333000000000009
105.666 0.06666000000000016
105.988 0.06666000000000016
106.312 0.03000000000000025
106.634 0.0766600000000004
106.958 0.046660000000000146
107.282 0.046660000000000146
107.604 0.046660000000000146
107.928 0.06666000000000016
108.252 0.05333000000000032
108.574 0.06666000000000016
108.898 0.06333000000000011
109.22 0.046660000000000146
109.544 0.05333000000000032
109.868 0.05333000000000032
110.19 0.0766600000000004
110.514 0.05333000000000032
110.836 0.046660000000000146
111.159 0.046660000000000146
111.483 0.023330000000000073
111.805 0.05666000000000038
112.129 0.050000000000000266
112.451 0.03000000000000025
112.775 0.003330000000000055
113.096 0.04333000000000009
113.42 0.08000000000000007
113.744 0.05666000000000038
114.066 0.05333000000000032
114.39 0.03000000000000025
114.711 0.05666000000000038
115.035 0.040000000000000036
115.357 0.07333000000000034
115.681 0.040000000000000036
116.004 0.03000000000000025
116.326 0.023330000000000073
116.65 0.033330000000000304
116.971 0.04333000000000009
117.295 0.046660000000000146
117.617 0.026660000000000128
117.94 0.050000000000000266
118.262 0.046660000000000146
118.586 0.03000000000000025
118.907 0.05333000000000032
119.231 0.07000000000000028
119.554 0.013330000000000286
119.876 0.046660000000000146
120.199 0.03000000000000025
120.521 0.05333000000000032
120.845 0.050000000000000266
121.166 0.05666000000000038
121.49 0.05666000000000038
121.811 0.046660000000000146
122.135 0.050000000000000266
122.456 0.05666000000000038
122.78 0.07333000000000034
123.101 0.013330000000000286
123.424 0.05333000000000032
123.746 0.050000000000000266
124.069 0.07000000000000028
124.391 0.046660000000000146
124.714 0.03666000000000036
125.035 0.026660000000000128
125.359 0.06666000000000016
125.68 0.05333000000000032
126.004 0.050000000000000266
126.325 0.07333000000000034
126.648 0.05666000000000038
126.97 0.050000000000000266
127.291 0.06333000000000011
127.614 0.03666000000000036
127.935 0.0766600000000004
128.259 0.05333000000000032
128.58 0.046660000000000146
128.903 0.0766600000000004
129.224 0.07333000000000034
129.548 0.04333000000000009
129.869 0.0766600000000004
130.192 0.07000000000000028
130.513 0.06000000000000005
130.834 0.08666000000000018
131.158 0.0766600000000004
131.479 0.046660000000000146
131.802 0.07000000000000028
132.123 0.06000000000000005
132.446 0.0900000000000003
132.767 0.06666000000000016
133.09 0.08666000000000018
133.411 0.06666000000000016
133.733 0.07333000000000034
134.056 0.06666000000000016
134.377 0.07333000000000034
134.7 0.06666000000000016
135.021 0.07000000000000028
135.342 0.010000000000000231
135.665 0.05333000000000032
135.986 0.06666000000000016
136.309 0.06666000000000016
136.63 0.010000000000000231
136.951 0.03666000000000036
137.274 0.06666000000000016
137.595 0.046660000000000146
137.918 0.046660000000000146
138.238 0.05666000000000038
138.559 0.040000000000000036
138.882 0.046660000000000146
139.203 0.03666000000000036
139.526 0.033330000000000304
139.847 0.03000000000000025
140.168 0.05333000000000032
140.491 0.05666000000000038
140.811 0.05333000000000032
141.132 0.06000000000000005
141.455 0.026660000000000128
141.776 0.05666000000000038
142.097 0.05666000000000038
142.419 0.050000000000000266
142.74 0.050000000000000266
143.061 0.023330000000000073
143.384 0.06000000000000005
143.704 0.05666000000000038
144.027 0.03000000000000025
144.348 0.07000000000000028
144.668 0.050000000000000266
144.991 0.06333000000000011
145.312 0.06333000000000011
145.632 0.050000000000000266
145.955 0.03666000000000036
146.276 0.06000000000000005
146.596 0.06666000000000016
146.917 0.05333000000000032
147.24 0.06666000000000016
147.56 0.046660000000000146
147.881 0.06333000000000011
148.203 0.06666000000000016
148.524 0.05333000000000032
148.844 0.06000000000000005
149.167 0.05333000000000032
149.487 0.08333000000000013
149.808 0.0766600000000004
150.131 0.07000000000000028
150.451 0.06000000000000005
150.771 0.03666000000000036
151.092 0.05666000000000038
151.414 0.06000000000000005
151.735 0.050000000000000266
152.055 0.020000000000000018
152.378 0.06666000000000016
152.698 0.0766600000000004
153.018 0.046660000000000146
153.339 0.06333000000000011
153.661 0.03000000000000025
153.982 0.0766600000000004
154.302 0.04333000000000009
154.622 0.03000000000000025
154.945 0.06666000000000016
155.265 0.06000000000000005
155.585 0.06333000000000011
155.905 0.06000000000000005
156.228 0.06666000000000016
156.548 0.06666000000000016
156.868 0.0766600000000004
157.188 0.04333000000000009
157.511 0.033330000000000304
157.831 0.06000000000000005
158.151 0.06333000000000011
158.471 0.0766600000000004
158.794 0.050000000000000266
159.114 0.040000000000000036
159.434 0.07000000000000028
159.754 0.07000000000000028
160.074 0.0766600000000004
160.396 0.07000000000000028
160.717 0.08666000000000018
161.037 0.08333000000000013
161.357 0.05333000000000032
161.679 0.08000000000000007
161.999 0.046660000000000146
162.319 0.04333000000000009
162.639 0.06333000000000011
162.959 0.05333000000000032
163.281 0.06000000000000005
163.601 0.05666000000000038
163.921 0.06666000000000016
164.241 0.046660000000000146
164.561 0.0766600000000004
164.881 0.0766600000000004
165.203 0.06000000000000005
165.523 0.07333000000000034
165.843 0.06333000000000011
166.163 0.0766600000000004
166.483 0.07000000000000028
166.803 0.08666000000000018
167.125 0.07333000000000034
167.445 0.07333000000000034
167.764 0.1066600000000002
168.084 0.09333000000000036
168.404 0.10000000000000009
168.724 0.08666000000000018
169.046 0.08333000000000013
169.366 0.07333000000000034
169.685 0.050000000000000266
170.005 0.09666000000000041
170.325 0.0900000000000003
170.645 0.0766600000000004
170.964 0.09333000000000036
171.286 0.10000000000000009
171.606 0.07000000000000028
171.926 0.07000000000000028
172.245 0.050000000000000266
172.565 0.10333000000000014
172.885 0.04333000000000009
173.204 0.07000000000000028
173.524 0.06000000000000005
173.846 0.04333000000000009
174.166 0.08333000000000013
174.485 0.06000000000000005
174.805 0.0900000000000003
175.124 0.050000000000000266
175.444 0.09333000000000036
175.764 0.06000000000000005
176.083 0.0900000000000003
176.403 0.06333000000000011
176.722 0.050000000000000266
177.044 0.050000000000000266
177.363 0.08000000000000007
177.683 0.06333000000000011
178.002 0.05666000000000038
178.322 0.08666000000000018
178.641 0.08333000000000013
178.961 0.046660000000000146
179.28 0.07333000000000034
179.6 0.10000000000000009
179.919 0.08333000000000013
180.239 0.08333000000000013
180.558 0.033330000000000304
180.877 0.08333000000000013
181.197 0.07000000000000028
181.516 0.05666000000000038
181.838 0.06000000000000005
182.157 0.06333000000000011
182.476 0.06000000000000005
182.796 0.06333000000000011
183.115 0.046660000000000146
183.434 0.07000000000000028
183.754 0.05333000000000032
184.073 0.06000000000000005
184.392 0.10333000000000014
184.712 0.06333000000000011
185.031 0.07333000000000034
185.35 0.08666000000000018
185.669 0.08666000000000018
185.989 0.033330000000000304
186.308 0.08333000000000013
186.627 0.06666000000000016
186.946 0.050000000000000266
187.265 0.07000000000000028
187.585 0.09666000000000041
187.904 0.0766600000000004
188.223 0.06666000000000016
188.542 0.07000000000000028
188.861 0.03000000000000025
189.18 0.0766600000000004
189.499 0.08000000000000007
189.818 0.05333000000000032
190.138 0.06666000000000016
190.457 0.06333000000000011
190.776 0.05666000000000038
191.095 0.07000000000000028
191.414 0.0900000000000003
191.733 0.0900000000000003
192.052 0.08000000000000007
192.371 0.0900000000000003
192.69 0.04333000000000009
193.009 0.09333000000000036
193.328 0.08333000000000013
193.647 0.07333000000000034
193.966 0.07333000000000034
194.285 0.10333000000000014
194.602 0.08333000000000013
194.92 0.07333000000000034
195.239 0.0766600000000004
195.558 0.05666000000000038
195.877 0.07000000000000028
196.196 0.07333000000000034
196.515 0.04333000000000009
196.834 0.07333000000000034
197.153 0.050000000000000266
197.471 0.0900000000000003
197.79 0.07333000000000034
198.109 0.08333000000000013
198.428 0.0766600000000004
198.747 0.10000000000000009
199.065 0.0766600000000004
199.382 0.08333000000000013
199.701 0.04333000000000009
200.02 0.06666000000000016
200.338 0.08333000000000013
200.657 0.08333000000000013
200.976 0.09333000000000036
201.295 0.0900000000000003
201.613 0.11000000000000032
201.932 0.08000000000000007
202.251 0.08333000000000013
202.567 0.08333000000000013
202.886 0.09666000000000041
203.204 0.05666000000000038
203.523 0.07333000000000034
203.842 0.07000000000000028
204.16 0.06666000000000016
204.479 0.05666000000000038
204.797 0.0766600000000004
205.114 0.11000000000000032
205.433 0.08333000000000013
205.751 0.07333000000000034
206.07 0.0766600000000004
206.388 0.0900000000000003
206.707 0.07333000000000034
207.025 0.08666000000000018
207.342 0.10000000000000009
207.66 0.09333000000000036
207.979 0.10000000000000009
208.297 0.09333000000000036
208.615 0.0766600000000004
208.934 0.0766600000000004
209.25 0.07333000000000034
209.569 0.10333000000000014
209.887 0.08333000000000013
210.205 0.11000000000000032
210.524 0.1066600000000002
210.842 0.08666000000000018
211.158 0.09333000000000036
211.477 0.08000000000000007
211.795 0.08000000000000007
212.113 0.0766600000000004
212.432 0.08000000000000007
212.75 0.10000000000000009
213.066 0.06333000000000011
213.385 0.0900000000000003
213.703 0.09333000000000036
214.021 0.11333000000000037
214.339 0.0900000000000003
214.656 0.07000000000000028
214.974 0.08666000000000018
215.292 0.11333000000000037
215.61 0.09666000000000041
215.926 0.07000000000000028
216.245 0.07333000000000034
216.563 0.10333000000000014
216.881 0.1066600000000002
217.199 0.10333000000000014
217.515 0.1200000000000001
217.833 0.08666000000000018
218.151 0.0766600000000004
218.469 0.0900000000000003
218.785 0.06666000000000016
219.104 0.10333000000000014
219.422 0.0900000000000003
219.74 0.0900000000000003
220.056 0.07333000000000034
220.374 0.08333000000000013
220.692 0.10000000000000009
221.01 0.1066600000000002
221.326 0.11000000000000032
221.644 0.10333000000000014
221.962 0.13000000000000034
222.28 0.12666000000000022
222.596 0.14000000000000012
222.914 0.11333000000000037
223.232 0.1333300000000004
223.547 0.08666000000000018
223.865 0.09666000000000041
224.183 0.08333000000000013
224.501 0.07333000000000034
224.817 0.07333000000000034
225.135 0.1066600000000002
225.453 0.08666000000000018
225.768 0.13000000000000034
226.086 0.11333000000000037
226.404 0.09666000000000041
226.722 0.08666000000000018
227.038 0.10333000000000014
227.355 0.09333000000000036
227.673 0.08000000000000007
227.989 0.10000000000000009
228.307 0.10000000000000009
228.625 0.1066600000000002
228.94 0.11000000000000032
229.258 0.08333000000000013
229.576 0.11333000000000037
229.891 0.0900000000000003
230.209 0.11665999999999999
230.527 0.11333000000000037
230.842 0.1066600000000002
231.16 0.09333000000000036
231.478 0.0900000000000003
231.793 0.1333300000000004
232.111 0.09666000000000041
232.428 0.09666000000000041
232.744 0.10000000000000009
233.062 0.1066600000000002
233.379 0.11000000000000032
233.695 0.14333000000000018
234.012 0.13666
234.33 0.13000000000000034
234.645 0.0900000000000003
234.963 0.09666000000000041
235.278 0.12333000000000016
235.596 0.13666
235.913 0.1200000000000001
236.229 0.1066600000000002
236.546 0.14000000000000012
236.864 0.13000000000000034
237.179 0.13000000000000034
237.497 0.09666000000000041
237.812 0.14000000000000012
238.129 0.13666
238.447 0.1066600000000002
238.762 0.1333300000000004
239.08 0.13000000000000034
239.395 0.09666000000000041
239.712 0.13000000000000034
240.03 0.13000000000000034
240.345 0.10000000000000009
240.662 0.09666000000000041
240.978 0.13000000000000034
241.295 0.09666000000000041
241.61 0.1066600000000002
241.927 0.1200000000000001
242.245 0.1200000000000001
242.56 0.11665999999999999
242.877 0.12333000000000016
243.192 0.1633300000000002
243.51 0.1333300000000004
243.825 0.11000000000000032
244.142 0.12666000000000022
244.459 0.13000000000000034
244.774 0.11333000000000037
245.092 0.13666
245.407 0.15666000000000002
245.724 0.1333300000000004
246.039 0.13666
246.356 0.1200000000000001
246.671 0.11665999999999999
246.988 0.09333000000000036
247.303 0.14000000000000012
247.62 0.1066600000000002
247.938 0.11518114271452795
248.253 0.11524070531113972
248.57 0.11500472268503037
248.885 0.11522866034395696
249.202 0.11450435343987753
249.517 0.11493403020929982
249.834 0.1147385365701643
250.149 0.11522382158879996
250.466 0.11504934635239472
250.781 0.11476023398207413
251.098 0.114762351178336
251.412 0.11477148598510478
251.729 0.11482349732525599
252.044 0.1150634110552633
252.361 0.11565231684264399
252.676 0.11539851397752177
252.993 0.1148296844217831
253.308 0.11469398382090512
253.625 0.11484207429943094
253.94 0.1148751567136359
254.256 0.1066600000000002
254.571 0.1066600000000002
254.888 0.0766600000000004
255.203 0.08666000000000018
255.518 0.12333000000000016
255.834 0.1200000000000001
256.149 0.11333000000000037
256.466 0.12333000000000016
256.781 0.08666000000000018
257.097 0.11333000000000037
257.412 0.08666000000000018
257.729 0.1200000000000001
258.044 0.1333300000000004
258.36 0.10000000000000009
258.675 0.12666000000000022
258.99 0.08000000000000007
259.306 0.13000000000000034
259.621 0.11000000000000032
259.938 0.11000000000000032
260.252 0.0900000000000003
260.569 0.1066600000000002
260.883 0.12666000000000022
261.198 0.09333000000000036
261.515 0.11000000000000032
261.829 0.11000000000000032
262.146 0.13000000000000034
262.46 0.11665999999999999
262.775 0.13000000000000034
263.091 0.07333000000000034
263.406 0.1066600000000002
263.723 0.10333000000000014
264.037 0.1200000000000001
264.354 0.10000000000000009
264.668 0.1066600000000002
264.982 0.10333000000000014
265.299 0.1066600000000002
265.613 0.11000000000000032
265.928 0.08666000000000018
266.244 0.1066600000000002
266.559 0.0900000000000003
266.875 0.13000000000000034
267.189 0.10333000000000014
267.504 0.09333000000000036
267.82 0.11000000000000032
268.134 0.1200000000000001
268.449 0.1200000000000001
268.765 0.1200000000000001
269.079 0.1066600000000002
269.394 0.1200000000000001
269.71 0.11333000000000037
270.024 0.09333000000000036
270.341 0.08000000000000007
270.655 0.13666
270.969 0.10333000000000014
271.286 0.08666000000000018
271.6 0.1200000000000001
271.914 0.12666000000000022
272.23 0.10000000000000009
272.544 0.1200000000000001
272.859 0.14000000000000012
273.175 0.10333000000000014
273.489 0.10333000000000014
273.803 0.12333000000000016
274.119 0.11000000000000032
274.433 0.11665999999999999
274.747 0.11333000000000037
275.062 0.08333000000000013
275.378 0.09333000000000036
275.692 0.11000000000000032
276.006 0.10333000000000014
276.322 0.09333000000000036
276.636 0.11000000000000032
276.95 0.08666000000000018
277.266 0.10333000000000014
277.58 0.1200000000000001
277.894 0.10333000000000014
278.208 0.08000000000000007
278.524 0.14333000000000018
278.838 0.1200000000000001
279.152 0.14666000000000023
279.468 0.1066600000000002
279.782 0.13000000000000034
280.096 0.14000000000000012
280.41 0.11333000000000037
280.726 0.14333000000000018
281.04 0.11333000000000037
281.354 0.1333300000000004
281.668 0.11665999999999999
281.983 0.12333000000000016
282.297 0.1200000000000001
282.611 0.15666000000000002
282.925 0.1533300000000004
283.241 0.11665999999999999
283.555 0.12666000000000022
283.868 0.1066600000000002
284.182 0.12666000000000022
284.498 0.1333300000000004
284.812 0.11665999999999999
285.126 0.15000000000000036
285.439 0.1066600000000002
285.753 0.14000000000000012
286.069 0.14000000000000012
286.383 0.1066600000000002
286.696 0.11333000000000037
287.01 0.1066600000000002
287.326 0.11665999999999999
287.639 0.09666000000000041
287.953 0.10000000000000009
288.267 0.11000000000000032
288.58 0.11333000000000037
288.896 0.13666
289.21 0.10000000000000009
289.523 0.1200000000000001
289.837 0.10333000000000014
290.15 0.12666000000000022
290.466 0.12666000000000022
290.78 0.1200000000000001
291.093 0.1066600000000002
291.407 0.1333300000000004
291.72 0.09666000000000041
292.034 0.10000000000000009
292.349 0.11665999999999999
292.663 0.14333000000000018
292.976 0.14000000000000012
293.29 0.10333000000000014
293.603 0.14000000000000012
293.917 0.11665999999999999
294.232 0.1333300000000004
294.546 0.14333000000000018
294.859 0.12666000000000022
295.172 0.13000000000000034
295.486 0.1333300000000004
295.799 0.1066600000000002
296.113 0.13000000000000034
296.428 0.13666
296.741 0.1333300000000004
297.055 0.1066600000000002
297.368 0.08666000000000018
297.681 0.13000000000000034
297.995 0.14000000000000012
298.308 0.11333000000000037
298.621 0.11333000000000037
298.937 0.15666000000000002
299.25 0.10333000000000014
299.563 0.11000000000000032
299.876 0.13000000000000034
300.19 0.14666000000000023
300.503 0.12666000000000022
300.816 0.1200000000000001
301.129 0.14000000000000012
301.442 0.10333000000000014
301.756 0.13000000000000034
302.071 0.11000000000000032
302.384 0.10333000000000014
302.697 0.10333000000000014
303.01 0.1066600000000002
303.323 0.09333000000000036
303.637 0.11665999999999999
303.95 0.11333000000000037
304.263 0.12666000000000022
304.576 0.1066600000000002
304.889 0.14333000000000018
305.202 0.10333000000000014
305.515 0.14666000000000023
305.828 0.13000000000000034
306.141 0.1633300000000002
306.456 0.11000000000000032
306.769 0.1066600000000002
307.082 0.13666
307.395 0.1200000000000001
307.708 0.13000000000000034
308.021 0.13000000000000034
308.334 0.13666
308.647 0.14000000000000012
308.96 0.1200000000000001
309.273 0.14666000000000023
309.586 0.13000000000000034
309.899 0.11665999999999999
310.212 0.11000000000000032
310.525 0.1533300000000004
310.838 0.14000000000000012
311.15 0.14000000000000012
311.463 0.16666000000000025
311.776 0.13000000000000034
312.089 0.14666000000000023
312.402 0.14000000000000012
312.715 0.1533300000000004
313.027 0.13666
313.34 0.11665999999999999
313.653 0.1333300000000004
313.966 0.13666
314.278 0.15666000000000002
314.591 0.14000000000000012
314.904 0.1066600000000002
315.217 0.14333000000000018
315.529 0.14000000000000012
315.842 0.13000000000000034
316.155 0.08666000000000018
316.467 0.14333000000000018
316.78 0.11665999999999999
317.093 0.11665999999999999
317.405 0.11333000000000037
317.718 0.14333000000000018
318.031 0.11665999999999999
318.343 0.11665999999999999
318.656 0.14666000000000023
318.969 0.14666000000000023
319.281 0.14666000000000023
319.592 0.15000000000000036
319.904 0.09666000000000041
320.217 0.13666
320.529 0.15000000000000036
320.842 0.11665999999999999
321.154 0.15000000000000036
321.467 0.14000000000000012
321.779 0.13000000000000034
322.092 0.16000000000000014
322.404 0.1200000000000001
322.717 0.14333000000000018
323.029 0.12333000000000016
323.342 0.1633300000000002
323.654 0.15000000000000036
323.965 0.1533300000000004
324.277 0.14666000000000023
324.589 0.16666000000000025
324.902 0.15666000000000002
325.214 0.1333300000000004
325.527 0.1633300000000002
325.839 0.19666000000000006
326.151 0.1633300000000002
326.464 0.1633300000000002
326.776 0.16666000000000025
327.086 0.16000000000000014
327.399 0.1533300000000004
327.711 0.1533300000000004
328.023 0.17666000000000004
328.335 0.16666000000000025
328.648 0.16666000000000025
328.96 0.1900000000000004
329.27 0.19333
329.582 0.21333000000000002
329.895 0.20333000000000023
330.207 0.21333000000000002
330.519 0.19333
330.831 0.1900000000000004
331.143 0.21666000000000007
331.454 0.21666000000000007
331.766 0.21333000000000002
332.078 0.21666000000000007
332.39 0.22333000000000025
332.702 0.2366600000000001
333.014 0.24666000000000032
333.326 0.24333000000000027
333.636 0.2366600000000001
333.948 0.25333000000000006
334.261 0.2266600000000003
334.573 0.24333000000000027
334.885 0.2266600000000003
335.195 0.24333000000000027
335.507 0.24666000000000032
335.819 0.19333
336.131 0.2066600000000003
336.443 0.2066600000000003
336.753 0.18000000000000016
337.065 0.2100000000000004
337.377 0.15000000000000036
337.689 0.19666000000000006
338.001 0.17666000000000004
338.31 0.21333000000000002
338.622 0.17000000000000037
338.934 0.16000000000000014
339.246 0.1900000000000004
339.558 0.18666000000000027
339.868 0.17332999999999998
340.18 0.18333000000000022
340.492 0.18333000000000022
340.804 0.17000000000000037
341.113 0.17000000000000037
341.425 0.19666000000000006
341.737 0.16666000000000025
342.049 0.16000000000000014
342.361 0.1900000000000004
342.67 0.15666000000000002
342.982 0.15000000000000036
343.294 0.1900000000000004
343.606 0.1633300000000002
343.915 0.18000000000000016
344.227 0.18333000000000022
344.539 0.21666000000000007
344.849 0.18000000000000016
345.16 0.19666000000000006
345.472 0.21333000000000002
345.784 0.19666000000000006
346.093 0.2100000000000004
346.405 0.19666000000000006
346.717 0.17000000000000037
347.028 0.19666000000000006
347.338 0.22333000000000025
347.649 0.2066600000000003
347.961 0.21666000000000007
348.271 0.1900000000000004
348.582 0.22333000000000025
348.894 0.1900000000000004
349.205 0.21666000000000007
349.515 0.17666000000000004
349.826 0.19333
350.138 0.2100000000000004
350.447 0.1900000000000004
350.759 0.14666000000000023
351.07 0.1900000000000004
351.38 0.16666000000000025
351.691 0.18333000000000022
352.003 0.18666000000000027
352.312 0.16666000000000025
352.624 0.2100000000000004
352.935 0.18333000000000022
353.245 0.14000000000000012
353.556 0.18333000000000022
353.867 0.1900000000000004
354.177 0.2200000000000002
354.488 0.20333000000000023
354.799 0.16666000000000025
355.109 0.18000000000000016
355.42 0.19666000000000006
355.732 0.17332999999999998
356.041 0.14333000000000018
356.352 0.18000000000000016
356.663 0.15666000000000002
356.973 0.16666000000000025
357.284 0.19666000000000006
357.593 0.17666000000000004
357.905 0.18666000000000027
358.216 0.18000000000000016
358.525 0.15666000000000002
358.836 0.2266600000000003
359.147 0.17332999999999998
359.457 0.1900000000000004
359.768 0.18333000000000022
360.077 0.17000000000000037
360.388 0.1533300000000004
360.699 0.18000000000000016
361.008 0.21666000000000007
361.32 0.16000000000000014
361.629 0.2066600000000003
361.94 0.20333000000000023
362.251 0.20333000000000023
362.56 0.19666000000000006
362.871 0.2066600000000003
363.18 0.2100000000000004
363.491 0.17332999999999998
363.8 0.19333
364.111 0.16000000000000014
364.422 0.2066600000000003
364.731 0.18666000000000027
365.042 0.15000000000000036
365.351 0.2100000000000004
365.662 0.2266600000000003
365.971 0.1900000000000004
366.282 0.2100000000000004
366.593 0.18333000000000022
366.902 0.20000000000000018
367.213 0.16666000000000025
367.522 0.17000000000000037
367.833 0.2366600000000001
368.142 0.18666000000000027
368.453 0.2100000000000004
368.762 0.20333000000000023
369.073 0.18666000000000027
369.381 0.17000000000000037
369.692 0.19333
370.001 0.19666000000000006
370.312 0.20000000000000018
370.623 0.17000000000000037
370.932 0.2200000000000002
371.242 0.18333000000000022
371.551 0.19666000000000006
371.862 0.22999999999999998
372.171 0.16000000000000014
372.482 0.2066600000000003
372.79 0.17332999999999998
373.101 0.2100000000000004
373.41 0.17000000000000037
373.721 0.18000000000000016
374.029 0.18666000000000027
374.34 0.20333000000000023
374.649 0.14666000000000023
374.959 0.17332999999999998
375.268 0.18333000000000022
375.577 0.17666000000000004
375.887 0.2066600000000003
376.196 0.16666000000000025
376.506 0.17000000000000037
376.815 0.16000000000000014
377.126 0.19666000000000006
377.434 0.21333000000000002
377.745 0.19666000000000006
378.053 0.22333000000000025
378.364 0.1900000000000004
378.672 0.17666000000000004
378.983 0.19333
379.292 0.18666000000000027
379.6 0.18666000000000027
379.911 0.19333
380.219 0.17666000000000004
380.53 0.18666000000000027
380.838 0.20333000000000023
381.148 0.13666
381.457 0.19666000000000006
381.767 0.20333000000000023
382.076 0.15666000000000002
382.384 0.18000000000000016
382.695 0.2200000000000002
383.003 0.21333000000000002
383.313 0.2200000000000002
383.622 0.19666000000000006
383.93 0.1633300000000002
384.24 0.1900000000000004
384.549 0.18666000000000027
384.859 0.2366600000000001
385.167 0.20000000000000018
385.476 0.21666000000000007
385.786 0.2100000000000004
386.094 0.2066600000000003
386.405 0.21333000000000002
386.713 0.20000000000000018
387.021 0.18000000000000016
387.331 0.18333000000000022
387.64 0.2366600000000001
387.948 0.2200000000000002
388.258 0.2100000000000004
388.566 0.19333
388.877 0.22999999999999998
389.185 0.22333000000000025
389.493 0.1900000000000004
389.803 0.1900000000000004
390.111 0.2100000000000004
390.419 0.17666000000000004
390.729 0.19333
391.038 0.23333000000000004
391.346 0.22333000000000025
391.656 0.21333000000000002
391.964 0.2400000000000002
392.272 0.2066600000000003
392.582 0.2100000000000004
392.89 0.2266600000000003
393.198 0.19666000000000006
393.508 0.22333000000000025
393.816 0.21333000000000002
394.124 0.20333000000000023
394.434 0.2366600000000001
394.742 0.2066600000000003
395.05 0.2366600000000001
395.36 0.22999999999999998
395.668 0.25333000000000006
395.976 0.26000000000000023
396.286 0.2200000000000002
396.594 0.2200000000000002
396.902 0.1900000000000004
397.21 0.2266600000000003
397.52 0.25
397.828 0.21333000000000002
398.135 0.21333000000000002
398.445 0.19666000000000006
398.753 0.2266600000000003
399.061 0.20000000000000018
399.369 0.21333000000000002
399.679 0.20333000000000023
399.987 0.2066600000000003
400.294 0.25
400.604 0.22333000000000025
400.912 0.23333000000000004
401.22 0.2400000000000002
401.527 0.18666000000000027
401.837 0.2366600000000001
402.145 0.2200000000000002
402.453 0.21333000000000002
402.76 0.22333000000000025
403.07 0.24666000000000032
403.378 0.2400000000000002
403.686 0.2200000000000002
403.993 0.2266600000000003
404.303 0.2400000000000002
404.611 0.25333000000000006
404.918 0.25333000000000006
405.226 0.23333000000000004
405.533 0.24333000000000027
405.843 0.25
406.151 0.25
406.458 0.24333000000000027
406.766 0.2366600000000001
407.076 0.19333
407.383 0.2366600000000001
407.691 0.25
407.998 0.27666000000000013
408.306 0.2366600000000001
408.615 0.2566600000000001
408.923 0.24666000000000032
409.23 0.2566600000000001
409.538 0.25333000000000006
409.845 0.26666000000000034
410.153 0.23333000000000004
410.462 0.2933300000000001
410.77 0.2566600000000001
411.077 0.28000000000000025
411.384 0.27
411.692 0.25333000000000006
412.001 0.3033299999999999
412.309 0.28000000000000025
412.616 0.3033299999999999
412.923 0.3166600000000006
413.231 0.2999999999999998
413.538 0.3366600000000002
413.845 0.36666000000000043
414.155 0.3433299999999999
414.462 0.3166600000000006
414.769 0.3933300000000006
415.077 0.3966599999999998
415.384 0.34665999999999997
415.691 0.4366599999999998
415.999 0.40000000000000036
416.308 0.41666000000000025
416.615 0.44333000000000045
416.922 0.4366599999999998
417.23 0.45333000000000023
417.537 0.46333
417.844 0.47665999999999986
418.151 0.43332999999999977
418.458 0.5499999999999998
418.768 0.5166599999999999
419.075 0.5433300000000001
419.382 0.6166600000000004
419.689 0.63666
419.996 0.6466599999999998
420.303 0.6933300000000004
420.61 0.7300000000000004
420.918 0.7033300000000002
421.225 0.7333300000000005
421.532 0.7366600000000005
421.841 0.8533300000000006
422.148 0.8533300000000006
422.455 0.92666
422.762 0.9300000000000006
423.069 0.9533300000000002
423.376 0.8966599999999998
423.683 0.9733299999999998
423.99 0.9966600000000003
424.297 1.0499999999999998
424.604 1.0499999999999998
424.911 1.0099999999999998
425.218 1.01666
425.525 1.0233300000000005
425.832 0.9833300000000005
426.139 0.9900000000000002
426.446 0.92666
426.753 0.9800000000000004
427.061 0.8933300000000006
427.368 0.9366599999999998
427.675 0.8366600000000002
427.982 0.9000000000000004
428.289 0.8266600000000004
428.596 0.8200000000000003
428.903 0.7933300000000001
429.209 0.8133300000000006
429.516 0.7700000000000005
429.823 0.7066600000000003
430.13 0.6933300000000004
430.437 0.6566600000000005
430.743 0.6633300000000002
431.05 0.5933299999999999
431.357 0.63666
431.664 0.5800000000000001
431.97 0.5333300000000003
432.277 0.5466600000000001
432.584 0.5333300000000003
432.891 0.5066600000000001
433.197 0.4800000000000004
433.504 0.45333000000000023
433.811 0.4300000000000006
434.117 0.4400000000000004
434.424 0.45999999999999996
434.731 0.4733299999999998
435.037 0.4466600000000005
435.344 0.39000000000000057
435.65 0.4133300000000002
435.957 0.40000000000000036
436.262 0.3633300000000004
436.568 0.40666000000000047
436.875 0.39000000000000057
437.181 0.3799999999999999
437.488 0.3333300000000001
437.794 0.3100000000000005
438.101 0.33999999999999986
438.407 0.3166600000000006
438.714 0.3633300000000004
439.02 0.3533300000000006
439.327 0.3433299999999999
439.633 0.30665999999999993
439.94 0.31333000000000055
440.246 0.33999999999999986
440.553 0.32333000000000034
440.859 0.31333000000000055
441.163 0.35665999999999976
441.47 0.2733300000000001
441.776 0.30665999999999993
442.083 0.3166600000000006
442.389 0.2633300000000003
442.695 0.27
443.002 0.2833300000000003
443.308 0.2999999999999998
443.614 0.28000000000000025
443.921 0.2933300000000001
444.225 0.2999999999999998
444.531 0.2833300000000003
444.838 0.26000000000000023
445.144 0.27
445.45 0.25333000000000006
445.757 0.27
446.063 0.2933300000000001
446.369 0.28666000000000036
446.675 0.28666000000000036
446.979 0.25
447.286 0.29000000000000004
447.592 0.29666000000000015
447.898 0.29000000000000004
448.204 0.3033299999999999
448.51 0.27666000000000013
448.817 0.2733300000000001
449.121 0.30665999999999993
449.427 0.28666000000000036
449.733 0.2933300000000001
450.039 0.30665999999999993
450.345 0.27666000000000013
450.651 0.3033299999999999
450.955 0.2366600000000001
451.261 0.3266600000000004
451.568 0.2633300000000003
451.874 0.2999999999999998
452.18 0.29666000000000015
452.486 0.29000000000000004
452.79 0.32333000000000034
453.096 0.26666000000000034
453.402 0.3600000000000003
453.708 0.26666000000000034
454.014 0.3100000000000005
454.318 0.2633300000000003
454.624 0.3100000000000005
454.93 0.31333000000000055
455.236 0.29000000000000004
455.541 0.26666000000000034
455.845 0.2733300000000001
456.151 0.29666000000000015
456.457 0.27
456.763 0.24666000000000032
457.067 0.29666000000000015
457.373 0.24666000000000032
457.679 0.28000000000000025
457.985 0.26666000000000034
458.29 0.23333000000000004
458.594 0.25
458.9 0.24333000000000027
459.206 0.2266600000000003
459.512 0.24333000000000027
459.815 0.28000000000000025
460.121 0.2400000000000002
460.427 0.25
460.733 0.24333000000000027
461.036 0.25333000000000006
461.342 0.2633300000000003
461.648 0.24333000000000027
461.954 0.26666000000000034
462.257 0.26000000000000023
462.563 0.2200000000000002
462.869 0.25333000000000006
463.172 0.2633300000000003
463.478 0.24333000000000027
463.784 0.2733300000000001
464.089 0.25
464.393 0.22333000000000025
464.699 0.25333000000000006
465.004 0.23333000000000004
465.308 0.22333000000000025
465.613 0.22333000000000025
465.919 0.2366600000000001
466.225 0.27
466.528 0.26666000000000034
466.834 0.27666000000000013
467.139 0.25333000000000006
467.443 0.2400000000000002
467.748 0.24333000000000027
468.054 0.2100000000000004
468.357 0.2266600000000003
468.663 0.25
468.968 0.26000000000000023
469.272 0.24333000000000027
469.577 0.27666000000000013
469.883 0.26000000000000023
470.186 0.27
470.492 0.28666000000000036
470.797 0.25333000000000006
471.1 0.24666000000000032
471.406 0.25333000000000006
471.711 0.26000000000000023
472.014 0.28000000000000025
472.32 0.27666000000000013
472.625 0.26666000000000034
472.929 0.26000000000000023
473.234 0.23333000000000004
473.539 0.2733300000000001
473.843 0.2933300000000001
474.148 0.3100000000000005
474.451 0.25
474.756 0.32333000000000034
475.062 0.28000000000000025
475.365 0.2633300000000003
475.67 0.30665999999999993
475.973 0.3033299999999999
476.279 0.3333300000000001
476.584 0.3166600000000006
476.887 0.27666000000000013
477.192 0.32333000000000034
477.498 0.3633300000000004
477.801 0.3633300000000004
478.106 0.46333
478.409 0.5133299999999998
478.714 0.5633300000000006
479.017 0.7000000000000002
479.322 0.6566600000000005
479.628 0.5733300000000003
479.931 0.5833300000000001
480.236 0.6433300000000006
480.539 0.6100000000000003
480.844 0.6566600000000005
481.147 0.71333
481.452 0.6633300000000002
481.757 0.67333
482.06 0.6200000000000001
482.365 0.6866599999999998
482.668 0.6233300000000002
482.973 0.6400000000000006
483.276 0.6433300000000006
483.581 0.6433300000000006
483.884 0.6133300000000004
484.189 0.5499999999999998
484.494 0.5366600000000004
484.797 0.5
485.102 0.38666
485.405 0.35665999999999976
485.71 0.3366600000000002
486.013 0.31333000000000055
486.318 0.35665999999999976
486.621 0.35000000000000053
486.925 0.3200000000000003
487.228 0.31333000000000055
487.533 0.3100000000000005
487.836 0.2999999999999998
488.141 0.2999999999999998
488.444 0.30665999999999993
488.748 0.2933300000000001
489.051 0.28000000000000025
489.356 0.26666000000000034
489.659 0.26666000000000034
489.964 0.2733300000000001
490.266 0.25
490.571 0.2566600000000001
490.874 0.2633300000000003
491.179 0.2200000000000002
491.481 0.22333000000000025
491.786 0.22333000000000025
492.089 0.23333000000000004
492.393 0.2633300000000003
492.696 0.23333000000000004
493.001 0.23333000000000004
493.303 0.2200000000000002
493.606 0.26000000000000023
493.911 0.23333000000000004
494.213 0.23333000000000004
494.518 0.2266600000000003
494.821 0.22999999999999998
495.125 0.21333000000000002
495.428 0.2266600000000003
495.732 0.2200000000000002
496.035 0.1900000000000004
496.337 0.2200000000000002
496.642 0.22999999999999998
496.945 0.2100000000000004
497.249 0.2266600000000003
497.552 0.1633300000000002
497.856 0.22333000000000025
498.159 0.19333
498.461 0.19333
498.766 0.25333000000000006
499.068 0.19666000000000006
499.372 0.18333000000000022
499.675 0.2066600000000003
499.977 0.16666000000000025
500.282 0.2200000000000002
500.584 0.21666000000000007
500.889 0.21333000000000002
501.191 0.18333000000000022
501.493 0.20000000000000018
501.798 0.2100000000000004
502.1 0.18000000000000016
502.402 0.2100000000000004
502.707 0.17666000000000004
503.009 0.20333000000000023
503.314 0.18666000000000027
503.616 0.19666000000000006
503.918 0.19666000000000006
504.222 0.17332999999999998
504.525 0.20333000000000023
504.827 0.22999999999999998
505.131 0.20000000000000018
505.433 0.17666000000000004
505.736 0.20333000000000023
506.04 0.2400000000000002
506.342 0.19666000000000006
506.646 0.1633300000000002
506.949 0.22999999999999998
507.251 0.18666000000000027
507.555 0.2100000000000004
507.857 0.17332999999999998
508.159 0.21333000000000002
508.461 0.19333
508.766 0.19333
509.068 0.19333
509.37 0.2100000000000004
509.674 0.18666000000000027
509.976 0.20333000000000023
510.278 0.2100000000000004
510.582 0.19666000000000006
510.884 0.17666000000000004
511.186 0.20000000000000018
511.49 0.21666000000000007
511.792 0.18333000000000022
512.094 0.18000000000000016
512.396 0.1900000000000004
512.701 0.2200000000000002
513.003 0.19666000000000006
513.305 0.19333
513.609 0.1900000000000004
513.91 0.18666000000000027
514.212 0.2200000000000002
514.514 0.21666000000000007
514.818 0.19333
515.12 0.17000000000000037
515.422 0.19333
515.724 0.1900000000000004
516.028 0.2100000000000004
516.33 0.1633300000000002
516.632 0.18333000000000022
516.934 0.20000000000000018
517.237 0.19666000000000006
517.539 0.1900000000000004
517.841 0.17666000000000004
518.143 0.2200000000000002
518.447 0.17332999999999998
518.749 0.1900000000000004
519.05 0.17332999999999998
519.352 0.21333000000000002
519.656 0.18333000000000022
519.958 0.1900000000000004
520.26 0.2066600000000003
520.561 0.20000000000000018
520.863 0.23333000000000004
521.167 0.1900000000000004
521.468 0.20333000000000023
521.77 0.2100000000000004
522.072 0.2066600000000003
522.376 0.18333000000000022
522.677 0.20333000000000023
522.979 0.2266600000000003
523.281 0.23333000000000004
523.582 0.20000000000000018
523.884 0.2066600000000003
524.187 0.2266600000000003
524.489 0.2200000000000002
524.791 0.23333000000000004
525.092 0.2366600000000001
525.394 0.21666000000000007
525.697 0.22333000000000025
525.999 0.17666000000000004
526.301 0.21333000000000002
526.602 0.2400000000000002
526.904 0.19333
527.205 0.18000000000000016
527.507 0.21666000000000007
527.81 0.23333000000000004
528.112 0.18000000000000016
528.413 0.17666000000000004
528.715 0.2066600000000003
529.016 0.2066600000000003
529.318 0.20000000000000018
529.619 0.2066600000000003
529.922 0.21333000000000002
530.224 0.2066600000000003
530.525 0.17332999999999998
530.827 0.22999999999999998
531.128 0.21333000000000002
531.429 0.2366600000000001
531.731 0.18333000000000022
532.032 0.24666000000000032
532.336 0.24333000000000027
532.637 0.20333000000000023
532.938 0.21666000000000007
533.24 0.2266600000000003
533.541 0.17332999999999998
533.842 0.21333000000000002
534.143 0.2200000000000002
534.445 0.20333000000000023
534.746 0.2100000000000004
535.047 0.25
535.351 0.25
535.652 0.2066600000000003
535.953 0.21333000000000002
536.254 0.22333000000000025
536.555 0.2100000000000004
536.857 0.21333000000000002
537.158 0.1900000000000004
537.459 0.19666000000000006
537.76 0.2200000000000002
538.061 0.21333000000000002
538.362 0.22333000000000025
538.664 0.24666000000000032
538.965 0.25333000000000006
539.266 0.21333000000000002
539.567 0.24333000000000027
539.868 0.19666000000000006
540.169 0.2266600000000003
540.472 0.23333000000000004
540.773 0.21333000000000002
541.074 0.2266600000000003
541.375 0.21333000000000002
541.677 0.20333000000000023
541.978 0.2733300000000001
542.279 0.24666000000000032
542.58 0.2200000000000002
542.881 0.20333000000000023
543.182 0.22333000000000025
543.483 0.22333000000000025
543.784 0.21333000000000002
544.085 0.2100000000000004
544.385 0.24333000000000027
544.686 0.2366600000000001
544.987 0.18333000000000022
545.288 0.19333
545.589 0.20000000000000018
545.89 0.2400000000000002
546.191 0.24333000000000027
546.492 0.1900000000000004
546.793 0.2100000000000004
547.094 0.2566600000000001
547.394 0.26666000000000034
547.695 0.25
547.996 0.26000000000000023
548.297 0.2566600000000001
548.596 0.2400000000000002
548.897 0.2633300000000003
549.197 0.2400000000000002
549.498 0.27666000000000013
549.799 0.28000000000000025
550.1 0.2366600000000001
550.4 0.28666000000000036
550.701 0.2733300000000001
551.002 0.24333000000000027
551.303 0.25
551.603 0.2999999999999998
551.904 0.32333000000000034
552.205 0.2999999999999998
552.505 0.3366600000000002
552.806 0.33000000000000007
553.107 0.30665999999999993
553.407 0.3600000000000003
553.706 0.3266600000000004
554.007 0.37333000000000016
554.307 0.3633300000000004
554.608 0.38666
554.909 0.3799999999999999
555.209 0.4033300000000004
555.51 0.3966599999999998
555.81 0.36666000000000043
556.111 0.3766600000000002
556.411 0.4033300000000004
556.71 0.43332999999999977
557.01 0.40000000000000036
557.311 0.3766600000000002
557.612 0.40666000000000047
557.912 0.3933300000000006
558.213 0.35000000000000053
558.513 0.3600000000000003
558.813 0.3766600000000002
559.112 0.37333000000000016
559.412 0.3166600000000006
559.713 0.35000000000000053
560.013 0.3266600000000004
560.314 0.30665999999999993
560.614 0.28000000000000025
560.914 0.3200000000000003
561.213 0.29666000000000015
561.513 0.2633300000000003
561.814 0.2633300000000003
562.114 0.27
562.414 0.29666000000000015
562.715 0.25
563.015 0.27666000000000013
563.313 0.2633300000000003
563.614 0.24666000000000032
563.914 0.24333000000000027
564.214 0.25333000000000006
564.515 0.2733300000000001
564.813 0.27666000000000013
565.113 0.2266600000000003
565.413 0.2400000000000002
565.714 0.2566600000000001
566.014 0.21333000000000002
566.312 0.2066600000000003
566.612 0.2400000000000002
566.912 0.2100000000000004
567.213 0.2566600000000001
567.513 0.24666000000000032
567.811 0.22999999999999998
568.111 0.2366600000000001
568.411 0.24333000000000027
568.712 0.2400000000000002
569.012 0.2400000000000002
569.31 0.18000000000000016
569.61 0.2200000000000002
569.91 0.21333000000000002
570.21 0.2066600000000003
570.508 0.2366600000000001
570.808 0.23333000000000004
571.108 0.2566600000000001
571.408 0.25
571.706 0.23333000000000004
572.006 0.25
572.306 0.2266600000000003
572.607 0.22999999999999998
572.904 0.2566600000000001
573.204 0.26000000000000023
573.505 0.22333000000000025
573.805 0.2066600000000003
574.102 0.2066600000000003
574.402 0.2266600000000003
574.702 0.21333000000000002
575.002 0.25333000000000006
575.3 0.19666000000000006
575.6 0.21666000000000007
575.9 0.22333000000000025
576.198 0.23333000000000004
576.498 0.21666000000000007
576.798 0.20000000000000018
577.098 0.22999999999999998
577.395 0.19666000000000006
577.695 0.21666000000000007
577.995 0.19666000000000006
578.293 0.17332999999999998
578.593 0.20333000000000023
578.893 0.2066600000000003
579.19 0.23333000000000004
579.49 0.22999999999999998
579.79 0.21666000000000007
580.088 0.2100000000000004
580.387 0.20000000000000018
580.687 0.20333000000000023
580.985 0.22333000000000025
581.285 0.20333000000000023
581.584 0.20333000000000023
581.882 0.23333000000000004
582.182 0.2266600000000003
582.482 0.2200000000000002
582.779 0.2100000000000004
583.079 0.19333
583.378 0.22999999999999998
583.676 0.21333000000000002
583.976 0.24666000000000032
584.275 0.19333
584.573 0.19333
584.873 0.21333000000000002
585.17 0.21666000000000007
585.47 0.2100000000000004
585.769 0.18666000000000027
586.067 0.21333000000000002
586.367 0.20333000000000023
586.666 0.1533300000000004
586.964 0.22999999999999998
587.263 0.26666000000000034
587.561 0.2066600000000003
587.86 0.1900000000000004
588.16 0.22333000000000025
588.457 0.2100000000000004
588.757 0.2100000000000004
589.054 0.2100000000000004
589.354 0.20333000000000023
589.653 0.15000000000000036
589.951 0.2266600000000003
590.25 0.2200000000000002
590.547 0.18333000000000022
590.847 0.21666000000000007
591.144 0.1900000000000004
591.444 0.1900000000000004
591.743 0.21666000000000007
592.04 0.19333
592.34 0.18666000000000027
592.637 0.20000000000000018
592.936 0.24666000000000032
593.234 0.21666000000000007
593.533 0.23333000000000004
593.832 0.22333000000000025
594.13 0.2066600000000003
594.429 0.2200000000000002
594.726 0.22333000000000025
595.026 0.22999999999999998
595.323 0.20000000000000018
595.622 0.25
595.919 0.22333000000000025
596.219 0.19333
596.516 0.17666000000000004
596.815 0.21333000000000002
597.112 0.2200000000000002
597.411 0.2200000000000002
597.709 0.21666000000000007
598.008 0.2100000000000004
598.305 0.19333
598.604 0.18333000000000022
598.901 0.20333000000000023
599.2 0.2066600000000003
599.497 0.26000000000000023
599.797 0.2400000000000002
600.094 0.20000000000000018
600.393 0.22999999999999998
600.69 0.2200000000000002
600.989 0.23333000000000004
601.286 0.21333000000000002
601.585 0.22333000000000025
601.882 0.18666000000000027
602.181 0.22333000000000025
602.478 0.23333000000000004
602.777 0.2366600000000001
603.074 0.2200000000000002
603.373 0.2266600000000003
603.67 0.2366600000000001
603.969 0.2400000000000002
604.266 0.19666000000000006
604.563 0.21333000000000002
604.862 0.21333000000000002
605.159 0.2400000000000002
605.458 0.28000000000000025
605.755 0.2100000000000004
606.054 0.26000000000000023
606.351 0.2400000000000002
606.65 0.2066600000000003
606.946 0.26000000000000023
607.243 0.28000000000000025
607.542 0.22999999999999998
607.839 0.2200000000000002
608.138 0.2366600000000001
608.435 0.25
608.732 0.29000000000000004
609.03 0.25
609.327 0.2566600000000001
609.626 0.25333000000000006
609.923 0.28666000000000036
610.22 0.2633300000000003
610.518 0.27
610.815 0.28666000000000036
611.114 0.2633300000000003
611.411 0.29666000000000015
611.707 0.2833300000000003
612.006 0.32333000000000034
612.303 0.29666000000000015
612.601 0.3200000000000003
612.898 0.2633300000000003
613.195 0.3100000000000005
613.493 0.3266600000000004
613.79 0.30665999999999993
614.087 0.35000000000000053
614.385 0.3200000000000003
614.682 0.29666000000000015
614.979 0.3200000000000003
615.277 0.32333000000000034
615.574 0.3433299999999999
615.87 0.3166600000000006
616.169 0.2933300000000001
616.466 0.3033299999999999
616.764 0.3033299999999999
617.061 0.32333000000000034
617.357 0.3033299999999999
617.656 0.3166600000000006
617.952 0.30665999999999993
618.249 0.3200000000000003
618.545 0.25
618.844 0.28000000000000025
619.14 0.26666000000000034
619.437 0.2633300000000003
619.735 0.28666000000000036
620.032 0.22999999999999998
620.328 0.24666000000000032
620.626 0.23333000000000004
620.923 0.26000000000000023
621.219 0.2266600000000003
621.518 0.20333000000000023
621.814 0.2100000000000004
622.11 0.24666000000000032
622.407 0.22999999999999998
622.705 0.22333000000000025
623.002 0.22999999999999998
623.298 0.26666000000000034
623.594 0.22333000000000025
623.893 0.2100000000000004
624.189 0.21333000000000002
624.485 0.2633300000000003
624.784 0.2200000000000002
625.08 0.2066600000000003
625.376 0.2566600000000001
625.672 0.21333000000000002
625.971 0.2200000000000002
626.267 0.19666000000000006
626.563 0.2200000000000002
626.859 0.26000000000000023
627.158 0.2833300000000003
627.454 0.17332999999999998
627.75 0.22999999999999998
628.046 0.24666000000000032
628.342 0.21333000000000002
628.641 0.20000000000000018
628.937 0.2066600000000003
629.233 0.22333000000000025
629.529 0.2400000000000002
629.827 0.2266600000000003
630.123 0.24333000000000027
630.419 0.2200000000000002
630.715 0.2266600000000003
631.011 0.23333000000000004
631.31 0.23333000000000004
631.606 0.24333000000000027
631.902 0.22999999999999998
632.198 0.22333000000000025
632.494 0.2266600000000003
632.792 0.20000000000000018
633.088 0.25
633.384 0.21666000000000007
633.68 0.2266600000000003
633.976 0.21333000000000002
634.272 0.2366600000000001
634.57 0.24666000000000032
634.866 0.2200000000000002
635.162 0.2400000000000002
635.458 0.20333000000000023
635.754 0.21333000000000002
636.05 0.20333000000000023
636.347 0.19333
636.643 0.17666000000000004
636.939 0.23333000000000004
637.235 0.2066600000000003
637.531 0.2266600000000003
637.827 0.21666000000000007
638.123 0.21333000000000002
638.421 0.20000000000000018
638.716 0.2266600000000003
639.012 0.2366600000000001
639.308 0.19666000000000006
639.604 0.22333000000000025
639.9 0.23333000000000004
640.195 0.24333000000000027
640.491 0.20333000000000023
640.789 0.22333000000000025
641.085 0.25333000000000006
641.381 0.20333000000000023
641.676 0.22333000000000025
641.972 0.2366600000000001
642.268 0.18333000000000022
642.563 0.20333000000000023
642.859 0.22333000000000025
643.155 0.26000000000000023
643.451 0.2200000000000002
643.746 0.25
644.044 0.2400000000000002
644.34 0.18666000000000027
644.635 0.22999999999999998
644.931 0.2100000000000004
645.227 0.2066600000000003
645.522 0.19333
645.818 0.20333000000000023
646.113 0.21666000000000007
646.409 0.22999999999999998
646.704 0.2200000000000002
647.0 0.2266600000000003
647.296 0.1900000000000004
647.591 0.21333000000000002
647.887 0.2100000000000004
648.182 0.22333000000000025
648.478 0.21333000000000002
648.773 0.25333000000000006
649.069 0.21333000000000002
649.366 0.24333000000000027
649.662 0.2066600000000003
649.957 0.20333000000000023
650.253 0.17332999999999998
650.548 0.2266600000000003
650.844 0.22333000000000025
651.139 0.24666000000000032
651.434 0.24666000000000032
651.73 0.2833300000000003
652.025 0.23333000000000004
652.321 0.2400000000000002
652.616 0.24333000000000027
652.911 0.27666000000000013
653.207 0.2633300000000003
653.502 0.27666000000000013
653.797 0.27
654.093 0.26000000000000023
654.388 0.27666000000000013
654.683 0.2633300000000003
654.979 0.2833300000000003
655.274 0.30665999999999993
655.567 0.30665999999999993
655.863 0.2733300000000001
656.158 0.28666000000000036
656.453 0.3200000000000003
656.748 0.2999999999999998
657.044 0.37333000000000016
657.339 0.3366600000000002
657.634 0.3966599999999998
657.929 0.3433299999999999
658.224 0.3966599999999998
658.52 0.4133300000000002
658.815 0.43332999999999977
659.11 0.4133300000000002
659.405 0.44333000000000045
659.7 0.4566600000000003
659.995 0.4366599999999998
660.291 0.4833300000000005
660.586 0.4666600000000001
660.879 0.49333000000000027
661.174 0.5066600000000001
661.469 0.4366599999999998
661.764 0.47000000000000064
662.059 0.5233300000000005
662.354 0.5
662.649 0.4733299999999998
662.944 0.45333000000000023
663.239 0.4366599999999998
663.534 0.43332999999999977
663.83 0.46333
664.122 0.4366599999999998
664.417 0.44333000000000045
664.713 0.3766600000000002
665.008 0.40000000000000036
665.302 0.39000000000000057
665.597 0.35000000000000053
665.892 0.3799999999999999
666.187 0.3966599999999998
666.48 0.33000000000000007
666.775 0.36666000000000043
667.07 0.3533300000000006
667.365 0.3266600000000004
667.66 0.3366600000000002
667.955 0.3166600000000006
668.25 0.31333000000000055
668.542 0.33000000000000007
668.837 0.28666000000000036
669.132 0.29000000000000004
669.427 0.2833300000000003
669.722 0.3166600000000006
670.017 0.28666000000000036
670.31 0.2933300000000001
670.604 0.3100000000000005
670.899 0.2933300000000001
671.194 0.28000000000000025
671.489 0.27
671.783 0.2100000000000004
672.076 0.2833300000000003
672.371 0.2366600000000001
672.666 0.27
672.96 0.2833300000000003
673.255 0.28000000000000025
673.548 0.25333000000000006
673.842 0.2633300000000003
674.137 0.2633300000000003
674.432 0.27
674.727 0.2266600000000003
675.019 0.22333000000000025
675.314 0.22333000000000025
675.608 0.2100000000000004
675.903 0.2366600000000001
676.196 0.2100000000000004
676.49 0.2400000000000002
676.785 0.2366600000000001
677.079 0.2400000000000002
677.374 0.24333000000000027
677.667 0.20000000000000018
677.961 0.23333000000000004
678.256 0.18000000000000016
678.55 0.23333000000000004
678.843 0.2100000000000004
679.137 0.1900000000000004
679.432 0.1900000000000004
679.726 0.22999999999999998
680.019 0.2100000000000004
680.313 0.18666000000000027
680.608 0.23333000000000004
680.902 0.17666000000000004
681.195 0.18000000000000016
681.489 0.2366600000000001
681.784 0.24333000000000027
682.076 0.2200000000000002
682.37 0.21666000000000007
682.665 0.26000000000000023
682.959 0.22333000000000025
683.252 0.25333000000000006
683.546 0.19333
683.84 0.22333000000000025
684.133 0.23333000000000004
684.427 0.21666000000000007
684.721 0.21333000000000002
685.014 0.17000000000000037
685.308 0.2400000000000002
685.602 0.2100000000000004
685.895 0.20000000000000018
686.189 0.1900000000000004
686.483 0.19666000000000006
686.778 0.22999999999999998
687.07 0.25333000000000006
687.364 0.20000000000000018
687.658 0.20333000000000023
687.951 0.2266600000000003
688.245 0.19666000000000006
688.537 0.22333000000000025
688.831 0.18333000000000022
689.125 0.20000000000000018
689.418 0.20333000000000023
689.712 0.19333
690.006 0.19666000000000006
690.298 0.18000000000000016
690.592 0.20000000000000018
690.886 0.18666000000000027
691.178 0.2100000000000004
691.473 0.25333000000000006
691.767 0.2066600000000003
692.059 0.24666000000000032
692.353 0.2100000000000004
692.645 0.18000000000000016
692.939 0.2200000000000002
693.233 0.2566600000000001
693.525 0.2066600000000003
693.819 0.22333000000000025
694.111 0.17332999999999998
694.405 0.22999999999999998
694.699 0.19666000000000006
694.991 0.19333
695.285 0.22999999999999998
695.577 0.24333000000000027
695.871 0.19333
696.165 0.19333
696.457 0.22333000000000025
696.751 0.24666000000000032
697.043 0.1900000000000004
697.337 0.21333000000000002
697.629 0.20000000000000018
697.923 0.22999999999999998
698.217 0.21666000000000007
698.509 0.2100000000000004
698.802 0.1900000000000004
699.094 0.17666000000000004
699.388 0.19333
699.68 0.2266600000000003
699.974 0.21666000000000007
700.266 0.19333
700.56 0.2066600000000003
700.853 0.17000000000000037
701.145 0.2066600000000003
701.439 0.2366600000000001
701.731 0.22999999999999998
702.025 0.19333
702.316 0.20333000000000023
702.61 0.23333000000000004
702.902 0.21333000000000002
703.196 0.2266600000000003
703.487 0.1900000000000004
703.781 0.18333000000000022
704.073 0.21666000000000007
704.367 0.18333000000000022
704.658 0.2200000000000002
704.952 0.19666000000000006
705.244 0.2200000000000002
705.537 0.22333000000000025
705.829 0.17332999999999998
706.122 0.1900000000000004
706.414 0.2066600000000003
706.708 0.2066600000000003
706.999 0.18333000000000022
707.293 0.20000000000000018
