# Created: 2019-11-28 13:05:40.824400
# rshift intensity
76.1738 0.25
76.4989 0.3666000000000018
76.824 0.18329999999999913
77.1491 0.3166000000000011
77.4721 0.28330000000000055
77.7972 0.23329999999999984
78.1223 0.18329999999999913
78.4474 0.21659999999999968
78.7724 0.05000000000000071
79.0975 0.21659999999999968
79.4204 0.15000000000000213
79.7454 0.05000000000000071
80.0704 0.18329999999999913
80.3954 0.21659999999999968
80.7204 0.10000000000000142
81.0454 0.10000000000000142
81.3682 0.08330000000000126
81.6931 0.016600000000000392
82.0181 0.23329999999999984
82.343 0.15000000000000213
82.6679 0.05000000000000071
82.9907 0.0666000000000011
83.3156 0.25
83.6405 0.05000000000000071
83.9654 0.13330000000000197
84.2903 0.16659999999999897
84.613 0.08330000000000126
84.9378 0.0666000000000011
85.2626 0.10000000000000142
85.5875 0.18329999999999913
85.9101 0.11660000000000181
86.2349 0.25
86.5597 0.10000000000000142
86.8845 0.03330000000000055
87.2093 0.1999999999999993
87.5319 0.13330000000000197
87.8566 0.16659999999999897
88.1814 0.05000000000000071
88.5061 0.0666000000000011
88.8286 0.18329999999999913
89.1533 0.1999999999999993
89.478 0.1999999999999993
89.8027 0.13330000000000197
90.1252 0.10000000000000142
90.4499 0.05000000000000071
90.7745 0.15000000000000213
91.0992 0.21659999999999968
91.4216 0.15000000000000213
91.7462 0.15000000000000213
92.0708 0.13330000000000197
92.3954 0.016600000000000392
92.7179 0.15000000000000213
93.0424 0.0666000000000011
93.367 0.15000000000000213
93.6915 0.0666000000000011
94.0139 0.25
94.3384 0.18329999999999913
94.6629 0.11660000000000181
94.9853 0.03330000000000055
95.3098 0.05000000000000071
95.6342 0.15000000000000213
95.9587 0.21659999999999968
96.281 0.18329999999999913
96.6055 0.0
96.9299 0.13330000000000197
97.2522 0.0666000000000011
97.5766 0.16659999999999897
97.901 0.03330000000000055
98.2232 0.08330000000000126
98.5476 0.16659999999999897
98.8719 0.16659999999999897
99.1942 0.15000000000000213
99.5185 0.10000000000000142
99.8428 0.15000000000000213
100.165 0.13330000000000197
100.489 0.15000000000000213
100.814 0.13330000000000197
101.136 0.13330000000000197
101.46 0.2666000000000004
101.784 0.16659999999999897
102.106 0.18329999999999913
102.431 0.10000000000000142
102.755 0.08330000000000126
103.077 0.15000000000000213
103.401 0.10000000000000142
103.725 0.2666000000000004
104.047 0.2666000000000004
104.372 0.21659999999999968
104.696 0.13330000000000197
105.018 0.11660000000000181
105.342 0.3000000000000007
105.666 0.08330000000000126
105.988 0.23329999999999984
106.312 0.11660000000000181
106.634 0.16659999999999897
106.958 0.21659999999999968
107.282 0.16659999999999897
107.604 0.13330000000000197
107.928 0.23329999999999984
108.252 0.25
108.574 0.21659999999999968
108.898 0.13330000000000197
109.22 0.16659999999999897
109.544 0.13330000000000197
109.868 0.03330000000000055
110.19 0.10000000000000142
110.514 0.15000000000000213
110.836 0.05000000000000071
111.159 0.1999999999999993
111.483 0.11660000000000181
111.805 0.18329999999999913
112.129 0.23329999999999984
112.451 0.2666000000000004
112.775 0.15000000000000213
113.096 0.21659999999999968
113.42 0.18329999999999913
113.744 0.11660000000000181
114.066 0.0666000000000011
114.39 0.3000000000000007
114.711 0.16659999999999897
115.035 0.10000000000000142
115.357 0.10000000000000142
115.681 0.13330000000000197
116.004 0.25
116.326 0.13330000000000197
116.65 0.16659999999999897
116.971 0.21659999999999968
117.295 0.0666000000000011
117.617 0.11660000000000181
117.94 0.15000000000000213
118.262 0.18329999999999913
118.586 0.16659999999999897
118.907 0.16659999999999897
119.231 0.25
119.554 0.08330000000000126
119.876 0.1999999999999993
120.199 0.18329999999999913
120.521 0.16659999999999897
120.845 0.25
121.166 0.10000000000000142
121.49 0.21659999999999968
121.811 0.13330000000000197
122.135 0.11660000000000181
122.456 0.1999999999999993
122.78 0.21659999999999968
123.101 0.10000000000000142
123.424 0.25
123.746 0.13330000000000197
124.069 0.21659999999999968
124.391 0.21659999999999968
124.714 0.1999999999999993
125.035 0.15000000000000213
125.359 0.25
125.68 0.15000000000000213
126.004 0.1999999999999993
126.325 0.28330000000000055
126.648 0.15000000000000213
126.97 0.16659999999999897
127.291 0.13330000000000197
127.614 0.13330000000000197
127.935 0.16659999999999897
128.259 0.15000000000000213
128.58 0.25
128.903 0.16659999999999897
129.224 0.16659999999999897
129.548 0.1999999999999993
129.869 0.16659999999999897
130.192 0.21659999999999968
130.513 0.16659999999999897
130.834 0.11660000000000181
131.158 0.33330000000000126
131.479 0.11660000000000181
131.802 0.18329999999999913
132.123 0.18329999999999913
132.446 0.16659999999999897
132.767 0.2666000000000004
133.09 0.2666000000000004
133.411 0.2666000000000004
133.733 0.15000000000000213
134.056 0.16659999999999897
134.377 0.05000000000000071
134.7 0.16659999999999897
135.021 0.28330000000000055
135.342 0.2666000000000004
135.665 0.15000000000000213
135.986 0.1999999999999993
136.309 0.13330000000000197
136.63 0.15000000000000213
136.951 0.08330000000000126
137.274 0.08330000000000126
137.595 0.11660000000000181
137.918 0.11660000000000181
138.238 0.2666000000000004
138.559 0.23329999999999984
138.882 0.2666000000000004
139.203 0.3000000000000007
139.526 0.05000000000000071
139.847 0.25
140.168 0.16659999999999897
140.491 0.15000000000000213
140.811 0.1999999999999993
141.132 0.23329999999999984
141.455 0.13330000000000197
141.776 0.11660000000000181
142.097 0.21659999999999968
142.419 0.16659999999999897
142.74 0.11660000000000181
143.061 0.21659999999999968
143.384 0.016600000000000392
143.704 0.25
144.027 0.1999999999999993
144.348 0.21659999999999968
144.668 0.16659999999999897
144.991 0.16659999999999897
145.312 0.13330000000000197
145.632 0.23329999999999984
145.955 0.15000000000000213
146.276 0.15000000000000213
146.596 0.11660000000000181
146.917 0.13330000000000197
147.24 0.15000000000000213
147.56 0.21659999999999968
147.881 0.23329999999999984
148.203 0.25
148.524 0.23329999999999984
148.844 0.3000000000000007
149.167 0.05000000000000071
149.487 0.16659999999999897
149.808 0.23329999999999984
150.131 0.2666000000000004
150.451 0.15000000000000213
150.771 0.16659999999999897
151.092 0.28330000000000055
151.414 0.05000000000000071
151.735 0.23329999999999984
152.055 0.13330000000000197
152.378 0.10000000000000142
152.698 0.21659999999999968
153.018 0.1999999999999993
153.339 0.10000000000000142
153.661 0.21659999999999968
153.982 0.1999999999999993
154.302 0.28330000000000055
154.622 0.13330000000000197
154.945 0.21659999999999968
155.265 0.1999999999999993
155.585 0.1999999999999993
155.905 0.1999999999999993
156.228 0.08330000000000126
156.548 0.18329999999999913
156.868 0.10000000000000142
157.188 0.15000000000000213
157.511 0.15000000000000213
157.831 0.05000000000000071
158.151 0.15000000000000213
158.471 0.18329999999999913
158.794 0.13330000000000197
159.114 0.18329999999999913
159.434 0.18329999999999913
159.754 0.16659999999999897
160.074 0.11660000000000181
160.396 0.23329999999999984
160.717 0.10000000000000142
161.037 0.23329999999999984
161.357 0.25
161.679 0.13330000000000197
161.999 0.05000000000000071
162.319 0.23329999999999984
162.639 0.23329999999999984
162.959 0.16659999999999897
163.281 0.2666000000000004
163.601 0.25
163.921 0.21659999999999968
164.241 0.18329999999999913
164.561 0.18329999999999913
164.881 0.2666000000000004
165.203 0.18329999999999913
165.523 0.2666000000000004
165.843 0.16659999999999897
166.163 0.28330000000000055
166.483 0.16659999999999897
166.803 0.1999999999999993
167.125 0.16659999999999897
167.445 0.13330000000000197
167.764 0.1999999999999993
168.084 0.25
168.404 0.25
168.724 0.21659999999999968
169.046 0.33330000000000126
169.366 0.23329999999999984
169.685 0.1999999999999993
170.005 0.25
170.325 0.18329999999999913
170.645 0.23329999999999984
170.964 0.28330000000000055
171.286 0.2666000000000004
171.606 0.16659999999999897
171.926 0.16659999999999897
172.245 0.28330000000000055
172.565 0.33330000000000126
172.885 0.18329999999999913
173.204 0.25
173.524 0.10000000000000142
173.846 0.3000000000000007
174.166 0.16659999999999897
174.485 0.11660000000000181
174.805 0.18329999999999913
175.124 0.18329999999999913
175.444 0.28330000000000055
175.764 0.21659999999999968
176.083 0.25
176.403 0.10000000000000142
176.722 0.08330000000000126
177.044 0.23329999999999984
177.363 0.05000000000000071
177.683 0.25
178.002 0.1999999999999993
178.322 0.18329999999999913
178.641 0.18329999999999913
178.961 0.16659999999999897
179.28 0.23329999999999984
179.6 0.2666000000000004
179.919 0.23329999999999984
180.239 0.3000000000000007
180.558 0.2666000000000004
180.877 0.13330000000000197
181.197 0.15000000000000213
181.516 0.28330000000000055
181.838 0.3000000000000007
182.157 0.10000000000000142
182.476 0.21659999999999968
182.796 0.18329999999999913
183.115 0.21659999999999968
183.434 0.3000000000000007
183.754 0.1999999999999993
184.073 0.1999999999999993
184.392 0.15000000000000213
184.712 0.2666000000000004
185.031 0.23329999999999984
185.35 0.15000000000000213
185.669 0.1999999999999993
185.989 0.11660000000000181
186.308 0.1999999999999993
186.627 0.1999999999999993
186.946 0.2666000000000004
187.265 0.18329999999999913
187.585 0.28330000000000055
187.904 0.1999999999999993
188.223 0.25
188.542 0.11660000000000181
188.861 0.21659999999999968
189.18 0.16659999999999897
189.499 0.10000000000000142
189.818 0.3166000000000011
190.138 0.10000000000000142
190.457 0.21659999999999968
190.776 0.3166000000000011
191.095 0.23329999999999984
191.414 0.21659999999999968
191.733 0.1999999999999993
192.052 0.21659999999999968
192.371 0.25
192.69 0.3000000000000007
193.009 0.3166000000000011
193.328 0.3000000000000007
193.647 0.2666000000000004
193.966 0.3000000000000007
194.285 0.3166000000000011
194.602 0.18329999999999913
194.92 0.18329999999999913
195.239 0.2666000000000004
195.558 0.16659999999999897
195.877 0.2666000000000004
196.196 0.21659999999999968
196.515 0.1999999999999993
196.834 0.25
197.153 0.1999999999999993
197.471 0.16659999999999897
197.79 0.28330000000000055
198.109 0.18329999999999913
198.428 0.15000000000000213
198.747 0.3000000000000007
199.065 0.23329999999999984
199.382 0.25
199.701 0.23329999999999984
200.02 0.15000000000000213
200.338 0.1999999999999993
200.657 0.25
200.976 0.2666000000000004
201.295 0.18329999999999913
201.613 0.3500000000000014
201.932 0.28330000000000055
202.251 0.18329999999999913
202.567 0.23329999999999984
202.886 0.21659999999999968
203.204 0.28330000000000055
203.523 0.3166000000000011
203.842 0.1999999999999993
204.16 0.28330000000000055
204.479 0.1999999999999993
204.797 0.40000000000000213
205.114 0.18329999999999913
205.433 0.3000000000000007
205.751 0.28330000000000055
206.07 0.18329999999999913
206.388 0.2666000000000004
206.707 0.18329999999999913
207.025 0.15000000000000213
207.342 0.21659999999999968
207.66 0.2666000000000004
207.979 0.21659999999999968
208.297 0.2666000000000004
208.615 0.25
208.934 0.15000000000000213
209.25 0.3000000000000007
209.569 0.15000000000000213
209.887 0.3166000000000011
210.205 0.1999999999999993
210.524 0.21659999999999968
210.842 0.16659999999999897
211.158 0.28330000000000055
211.477 0.18329999999999913
211.795 0.1999999999999993
212.113 0.2666000000000004
212.432 0.1999999999999993
212.75 0.11660000000000181
213.066 0.13330000000000197
213.385 0.23329999999999984
213.703 0.16659999999999897
214.021 0.1999999999999993
214.339 0.33330000000000126
214.656 0.18329999999999913
214.974 0.2666000000000004
215.292 0.10000000000000142
215.61 0.16659999999999897
215.926 0.21659999999999968
216.245 0.21659999999999968
216.563 0.21659999999999968
216.881 0.15000000000000213
217.199 0.2666000000000004
217.515 0.18329999999999913
217.833 0.25
218.151 0.23329999999999984
218.469 0.21659999999999968
218.785 0.28330000000000055
219.104 0.21659999999999968
219.422 0.08330000000000126
219.74 0.28330000000000055
220.056 0.16659999999999897
220.374 0.3000000000000007
220.692 0.11660000000000181
221.01 0.16659999999999897
221.326 0.2666000000000004
221.644 0.28330000000000055
221.962 0.33330000000000126
222.28 0.16659999999999897
222.596 0.1999999999999993
222.914 0.33330000000000126
223.232 0.3666000000000018
223.547 0.43329999999999913
223.865 0.1999999999999993
224.183 0.13330000000000197
224.501 0.23329999999999984
224.817 0.16659999999999897
225.135 0.15000000000000213
225.453 0.2666000000000004
225.768 0.40000000000000213
226.086 0.3166000000000011
226.404 0.1999999999999993
226.722 0.3166000000000011
227.038 0.11660000000000181
227.355 0.25
227.673 0.3500000000000014
227.989 0.3500000000000014
228.307 0.3000000000000007
228.625 0.25
228.94 0.21659999999999968
229.258 0.25
229.576 0.28330000000000055
229.891 0.2666000000000004
230.209 0.41659999999999897
230.527 0.23329999999999984
230.842 0.1999999999999993
231.16 0.21659999999999968
231.478 0.3166000000000011
231.793 0.3166000000000011
232.111 0.23329999999999984
232.428 0.41659999999999897
232.744 0.3000000000000007
233.062 0.3166000000000011
233.379 0.21659999999999968
233.695 0.2666000000000004
234.012 0.21659999999999968
234.33 0.2666000000000004
234.645 0.3000000000000007
234.963 0.23329999999999984
235.278 0.40000000000000213
235.596 0.23329999999999984
235.913 0.23329999999999984
236.229 0.33330000000000126
236.546 0.2666000000000004
236.864 0.33330000000000126
237.179 0.3500000000000014
237.497 0.25
237.812 0.2666000000000004
238.129 0.16659999999999897
238.447 0.3000000000000007
238.762 0.3666000000000018
239.08 0.3666000000000018
239.395 0.3166000000000011
239.712 0.383300000000002
240.03 0.3500000000000014
240.345 0.2666000000000004
240.662 0.23329999999999984
240.978 0.3500000000000014
241.295 0.2666000000000004
241.61 0.25
241.927 0.25
242.245 0.33330000000000126
242.56 0.25
242.877 0.3500000000000014
243.192 0.33330000000000126
243.51 0.33330000000000126
243.825 0.2666000000000004
244.142 0.33330000000000126
244.459 0.23329999999999984
244.774 0.21659999999999968
245.092 0.3166000000000011
245.407 0.3166000000000011
245.724 0.33330000000000126
246.039 0.18329999999999913
246.356 0.3500000000000014
246.671 0.3166000000000011
246.988 0.3500000000000014
247.303 0.28330000000000055
247.62 0.25
247.938 0.3666000000000018
248.253 0.3166000000000011
248.57 0.3166000000000011
248.885 0.28330000000000055
249.202 0.3000000000000007
249.517 0.2666000000000004
249.834 0.15000000000000213
250.149 0.2666000000000004
250.466 0.16659999999999897
250.781 0.13330000000000197
251.098 0.21659999999999968
251.412 0.23329999999999984
251.729 0.3500000000000014
252.044 0.25
252.361 0.40000000000000213
252.676 0.23329999999999984
252.993 0.16659999999999897
253.308 0.33330000000000126
253.625 0.2666000000000004
253.94 0.25
254.256 0.3166000000000011
254.571 0.3666000000000018
254.888 0.23329999999999984
255.203 0.25
255.518 0.23329999999999984
255.834 0.25
256.149 0.33330000000000126
256.466 0.3166000000000011
256.781 0.28330000000000055
257.097 0.1999999999999993
257.412 0.1999999999999993
257.729 0.28330000000000055
258.044 0.25
258.36 0.21659999999999968
258.675 0.23329999999999984
258.99 0.21659999999999968
259.306 0.1999999999999993
259.621 0.2666000000000004
259.938 0.3000000000000007
260.252 0.13330000000000197
260.569 0.18329999999999913
260.883 0.21659999999999968
261.198 0.3000000000000007
261.515 0.3000000000000007
261.829 0.25
262.146 0.25
262.46 0.23329999999999984
262.775 0.3166000000000011
263.091 0.1999999999999993
263.406 0.25
263.723 0.16659999999999897
264.037 0.13330000000000197
264.354 0.1999999999999993
264.668 0.28330000000000055
264.982 0.2666000000000004
265.299 0.3666000000000018
265.613 0.1999999999999993
265.928 0.3166000000000011
266.244 0.25
266.559 0.28330000000000055
266.875 0.2666000000000004
267.189 0.1999999999999993
267.504 0.18329999999999913
267.82 0.3666000000000018
268.134 0.3166000000000011
268.449 0.28330000000000055
268.765 0.3666000000000018
269.079 0.18329999999999913
269.394 0.18329999999999913
269.71 0.3666000000000018
270.024 0.18329999999999913
270.341 0.40000000000000213
270.655 0.2666000000000004
270.969 0.23329999999999984
271.286 0.3166000000000011
271.6 0.1999999999999993
271.914 0.28330000000000055
272.23 0.25
272.544 0.2666000000000004
272.859 0.1999999999999993
273.175 0.16659999999999897
273.489 0.28330000000000055
273.803 0.28330000000000055
274.119 0.16659999999999897
274.433 0.3000000000000007
274.747 0.23329999999999984
275.062 0.3500000000000014
275.378 0.3500000000000014
275.692 0.25
276.006 0.2666000000000004
276.322 0.28330000000000055
276.636 0.23329999999999984
276.95 0.33330000000000126
277.266 0.3166000000000011
277.58 0.4499999999999993
277.894 0.383300000000002
278.208 0.21659999999999968
278.524 0.3000000000000007
278.838 0.4499999999999993
279.152 0.2666000000000004
279.468 0.1999999999999993
279.782 0.33330000000000126
280.096 0.21659999999999968
280.41 0.2666000000000004
280.726 0.28330000000000055
281.04 0.21659999999999968
281.354 0.2666000000000004
281.668 0.383300000000002
281.983 0.383300000000002
282.297 0.3000000000000007
282.611 0.3166000000000011
282.925 0.25
283.241 0.383300000000002
283.555 0.3000000000000007
283.868 0.383300000000002
284.182 0.2666000000000004
284.498 0.4499999999999993
284.812 0.4665999999999997
285.126 0.16659999999999897
285.439 0.3666000000000018
285.753 0.33330000000000126
286.069 0.16659999999999897
286.383 0.3666000000000018
286.696 0.3500000000000014
287.01 0.33330000000000126
287.326 0.13330000000000197
287.639 0.28330000000000055
287.953 0.1999999999999993
288.267 0.3166000000000011
288.58 0.25
288.896 0.2666000000000004
289.21 0.25
289.523 0.1999999999999993
289.837 0.3500000000000014
290.15 0.21659999999999968
290.466 0.18329999999999913
290.78 0.28330000000000055
291.093 0.2666000000000004
291.407 0.23329999999999984
291.72 0.25
292.034 0.21659999999999968
292.349 0.3000000000000007
292.663 0.33330000000000126
292.976 0.2666000000000004
293.29 0.23329999999999984
293.603 0.23329999999999984
293.917 0.3000000000000007
294.232 0.3000000000000007
294.546 0.3166000000000011
294.859 0.383300000000002
295.172 0.18329999999999913
295.486 0.2666000000000004
295.799 0.3500000000000014
296.113 0.33330000000000126
296.428 0.3000000000000007
296.741 0.3000000000000007
297.055 0.3000000000000007
297.368 0.2666000000000004
297.681 0.33330000000000126
297.995 0.16659999999999897
298.308 0.25
298.621 0.3000000000000007
298.937 0.25
299.25 0.33330000000000126
299.563 0.28330000000000055
299.876 0.2666000000000004
300.19 0.3166000000000011
300.503 0.1999999999999993
300.816 0.1999999999999993
301.129 0.383300000000002
301.442 0.2666000000000004
301.756 0.2666000000000004
302.071 0.25
302.384 0.33330000000000126
302.697 0.3500000000000014
303.01 0.33330000000000126
303.323 0.41659999999999897
303.637 0.1999999999999993
303.95 0.41659999999999897
304.263 0.21659999999999968
304.576 0.48329999999999984
304.889 0.21659999999999968
305.202 0.16659999999999897
305.515 0.383300000000002
305.828 0.23329999999999984
306.141 0.2666000000000004
306.456 0.3666000000000018
306.769 0.3500000000000014
307.082 0.28330000000000055
307.395 0.21659999999999968
307.708 0.2666000000000004
308.021 0.3666000000000018
308.334 0.25
308.647 0.383300000000002
308.96 0.28330000000000055
309.273 0.21659999999999968
309.586 0.40000000000000213
309.899 0.3000000000000007
310.212 0.3666000000000018
310.525 0.3500000000000014
310.838 0.3000000000000007
311.15 0.10000000000000142
311.463 0.23329999999999984
311.776 0.3500000000000014
312.089 0.28330000000000055
312.402 0.43329999999999913
312.715 0.3500000000000014
313.027 0.25
313.34 0.1999999999999993
313.653 0.28330000000000055
313.966 0.28330000000000055
314.278 0.16659999999999897
314.591 0.21659999999999968
314.904 0.3666000000000018
315.217 0.21659999999999968
315.529 0.3000000000000007
315.842 0.33330000000000126
316.155 0.21659999999999968
316.467 0.3000000000000007
316.78 0.3500000000000014
317.093 0.28330000000000055
317.405 0.3166000000000011
317.718 0.3166000000000011
318.031 0.383300000000002
318.343 0.33330000000000126
318.656 0.3500000000000014
318.969 0.28330000000000055
319.281 0.2666000000000004
319.592 0.2666000000000004
319.904 0.3166000000000011
320.217 0.383300000000002
320.529 0.5333000000000006
320.842 0.23329999999999984
321.154 0.28330000000000055
321.467 0.3500000000000014
321.779 0.43329999999999913
322.092 0.2666000000000004
322.404 0.4499999999999993
322.717 0.43329999999999913
323.029 0.3500000000000014
323.342 0.3166000000000011
323.654 0.383300000000002
323.965 0.383300000000002
324.277 0.383300000000002
324.589 0.33330000000000126
324.902 0.43329999999999913
325.214 0.3166000000000011
325.527 0.33330000000000126
325.839 0.3166000000000011
326.151 0.25
326.464 0.25
326.776 0.25
327.086 0.1999999999999993
327.399 0.3166000000000011
327.711 0.40000000000000213
328.023 0.3166000000000011
328.335 0.3666000000000018
328.648 0.33330000000000126
328.96 0.3000000000000007
329.27 0.3500000000000014
329.582 0.5166000000000004
329.895 0.21659999999999968
330.207 0.43329999999999913
330.519 0.33330000000000126
330.831 0.4665999999999997
331.143 0.5833000000000013
331.454 0.3666000000000018
331.766 0.33330000000000126
332.078 0.4499999999999993
332.39 0.3500000000000014
332.702 0.4499999999999993
333.014 0.4499999999999993
333.326 0.43329999999999913
333.636 0.4499999999999993
333.948 0.3500000000000014
334.261 0.43329999999999913
334.573 0.48329999999999984
334.885 0.3666000000000018
335.195 0.4499999999999993
335.507 0.5333000000000006
335.819 0.5333000000000006
336.131 0.28330000000000055
336.443 0.3666000000000018
336.753 0.25
337.065 0.4499999999999993
337.377 0.3666000000000018
337.689 0.33330000000000126
338.001 0.33330000000000126
338.31 0.28330000000000055
338.622 0.3500000000000014
338.934 0.21659999999999968
339.246 0.5166000000000004
339.558 0.40000000000000213
339.868 0.33330000000000126
340.18 0.4665999999999997
340.492 0.383300000000002
340.804 0.383300000000002
341.113 0.43329999999999913
341.425 0.33330000000000126
341.737 0.28330000000000055
342.049 0.28330000000000055
342.361 0.25
342.67 0.28330000000000055
342.982 0.16659999999999897
343.294 0.5166000000000004
343.606 0.41659999999999897
343.915 0.28330000000000055
344.227 0.3500000000000014
344.539 0.5
344.849 0.3666000000000018
345.16 0.5166000000000004
345.472 0.43329999999999913
345.784 0.28330000000000055
346.093 0.3166000000000011
346.405 0.40000000000000213
346.717 0.33330000000000126
347.028 0.40000000000000213
347.338 0.3666000000000018
347.649 0.3500000000000014
347.961 0.4665999999999997
348.271 0.40000000000000213
348.582 0.48329999999999984
348.894 0.3166000000000011
349.205 0.3500000000000014
349.515 0.3166000000000011
349.826 0.3500000000000014
350.138 0.41659999999999897
350.447 0.3166000000000011
350.759 0.4665999999999997
351.07 0.3666000000000018
351.38 0.41659999999999897
351.691 0.40000000000000213
352.003 0.4499999999999993
352.312 0.28330000000000055
352.624 0.383300000000002
352.935 0.3000000000000007
353.245 0.3500000000000014
353.556 0.4499999999999993
353.867 0.25
354.177 0.3000000000000007
354.488 0.25
354.799 0.28330000000000055
355.109 0.3666000000000018
355.42 0.43329999999999913
355.732 0.3166000000000011
356.041 0.33330000000000126
356.352 0.3166000000000011
356.663 0.43329999999999913
356.973 0.2666000000000004
357.284 0.383300000000002
357.593 0.3000000000000007
357.905 0.5333000000000006
358.216 0.41659999999999897
358.525 0.5166000000000004
358.836 0.3500000000000014
359.147 0.3166000000000011
359.457 0.3666000000000018
359.768 0.28330000000000055
360.077 0.33330000000000126
360.388 0.28330000000000055
360.699 0.3500000000000014
361.008 0.5166000000000004
361.32 0.3500000000000014
361.629 0.3666000000000018
361.94 0.4499999999999993
362.251 0.3666000000000018
362.56 0.3000000000000007
362.871 0.383300000000002
363.18 0.3166000000000011
363.491 0.48329999999999984
363.8 0.383300000000002
364.111 0.43329999999999913
364.422 0.40000000000000213
364.731 0.25
365.042 0.33330000000000126
365.351 0.383300000000002
365.662 0.25
365.971 0.3500000000000014
366.282 0.2666000000000004
366.593 0.5333000000000006
366.902 0.40000000000000213
367.213 0.21659999999999968
367.522 0.41659999999999897
367.833 0.43329999999999913
368.142 0.4665999999999997
368.453 0.28330000000000055
368.762 0.383300000000002
369.073 0.2666000000000004
369.381 0.4499999999999993
369.692 0.40000000000000213
370.001 0.25
370.312 0.3666000000000018
370.623 0.41659999999999897
370.932 0.5
371.242 0.3166000000000011
371.551 0.33330000000000126
371.862 0.4499999999999993
372.171 0.3000000000000007
372.482 0.4499999999999993
372.79 0.23329999999999984
373.101 0.3666000000000018
373.41 0.33330000000000126
373.721 0.43329999999999913
374.029 0.383300000000002
374.34 0.3666000000000018
374.649 0.4499999999999993
374.959 0.33330000000000126
375.268 0.3166000000000011
375.577 0.40000000000000213
375.887 0.3000000000000007
376.196 0.3666000000000018
376.506 0.33330000000000126
376.815 0.28330000000000055
377.126 0.383300000000002
377.434 0.4499999999999993
377.745 0.5166000000000004
378.053 0.48329999999999984
378.364 0.28330000000000055
378.672 0.3166000000000011
378.983 0.25
379.292 0.5333000000000006
379.6 0.383300000000002
379.911 0.3500000000000014
380.219 0.48329999999999984
380.53 0.383300000000002
380.838 0.3666000000000018
381.148 0.40000000000000213
381.457 0.28330000000000055
381.767 0.41659999999999897
382.076 0.3500000000000014
382.384 0.3666000000000018
382.695 0.4665999999999997
383.003 0.3500000000000014
383.313 0.3666000000000018
383.622 0.4665999999999997
383.93 0.43329999999999913
384.24 0.383300000000002
384.549 0.3166000000000011
384.859 0.41659999999999897
385.167 0.4499999999999993
385.476 0.40000000000000213
385.786 0.5333000000000006
386.094 0.3000000000000007
386.405 0.5333000000000006
386.713 0.41659999999999897
387.021 0.43329999999999913
387.331 0.4499999999999993
387.64 0.40000000000000213
387.948 0.48329999999999984
388.258 0.3166000000000011
388.566 0.48329999999999984
388.877 0.28330000000000055
389.185 0.33330000000000126
389.493 0.4665999999999997
389.803 0.383300000000002
390.111 0.40000000000000213
390.419 0.3000000000000007
390.729 0.48329999999999984
391.038 0.4665999999999997
391.346 0.5500000000000007
391.656 0.4665999999999997
391.964 0.41659999999999897
392.272 0.28330000000000055
392.582 0.41659999999999897
392.89 0.3000000000000007
393.198 0.40000000000000213
393.508 0.2666000000000004
393.816 0.40000000000000213
394.124 0.4499999999999993
394.434 0.5666000000000011
394.742 0.4665999999999997
395.05 0.41659999999999897
395.36 0.4665999999999997
395.668 0.3666000000000018
395.976 0.3666000000000018
396.286 0.2666000000000004
396.594 0.383300000000002
396.902 0.40000000000000213
397.21 0.41659999999999897
397.52 0.383300000000002
397.828 0.5500000000000007
398.135 0.5
398.445 0.40000000000000213
398.753 0.41659999999999897
399.061 0.383300000000002
399.369 0.40000000000000213
399.679 0.48329999999999984
399.987 0.4665999999999997
400.294 0.43329999999999913
400.604 0.33330000000000126
400.912 0.43329999999999913
401.22 0.3500000000000014
401.527 0.5
401.837 0.3166000000000011
402.145 0.383300000000002
402.453 0.3666000000000018
402.76 0.5166000000000004
403.07 0.5500000000000007
403.378 0.5500000000000007
403.686 0.4499999999999993
403.993 0.3500000000000014
404.303 0.4665999999999997
404.611 0.383300000000002
404.918 0.5666000000000011
405.226 0.5166000000000004
405.533 0.5500000000000007
405.843 0.4665999999999997
406.151 0.40000000000000213
406.458 0.3000000000000007
406.766 0.40000000000000213
407.076 0.5666000000000011
407.383 0.4499999999999993
407.691 0.6166000000000018
407.998 0.41659999999999897
408.306 0.41659999999999897
408.615 0.5333000000000006
408.923 0.40000000000000213
409.23 0.3666000000000018
409.538 0.28330000000000055
409.845 0.6000000000000014
410.153 0.5833000000000013
410.462 0.33330000000000126
410.77 0.40000000000000213
411.077 0.5500000000000007
411.384 0.5666000000000011
411.692 0.48329999999999984
412.001 0.5500000000000007
412.309 0.5833000000000013
412.616 0.41659999999999897
412.923 0.41659999999999897
413.231 0.5333000000000006
413.538 0.48329999999999984
413.845 0.5
414.155 0.6000000000000014
414.462 0.633300000000002
414.769 0.633300000000002
415.077 0.5333000000000006
415.384 0.7165999999999997
415.691 0.5333000000000006
415.999 0.6832999999999991
416.308 0.6500000000000021
416.615 0.6999999999999993
416.922 0.75
417.23 0.5666000000000011
417.537 0.9000000000000021
417.844 1.0333000000000006
418.151 0.8333000000000013
418.458 0.8500000000000014
418.768 0.8333000000000013
419.075 0.9665999999999997
419.382 1.0166000000000004
419.689 1.0
419.996 1.2332999999999998
420.303 1.1000000000000014
420.61 1.2666000000000004
420.918 1.066600000000001
421.225 1.066600000000001
421.532 1.2332999999999998
421.841 1.2833000000000006
422.148 1.383300000000002
422.455 1.383300000000002
422.762 1.25
423.069 1.4332999999999991
423.376 1.2833000000000006
423.683 1.383300000000002
423.99 1.4499999999999993
424.297 1.4832999999999998
424.604 1.25
424.911 1.3500000000000014
425.218 1.4332999999999991
425.525 1.4332999999999991
425.832 1.4499999999999993
426.139 1.3333000000000013
426.446 1.3666000000000018
426.753 1.5333000000000006
427.061 1.3500000000000014
427.368 1.4832999999999998
427.675 1.1500000000000021
427.982 1.2666000000000004
428.289 1.0500000000000007
428.596 1.1500000000000021
428.903 1.0333000000000006
429.209 0.916599999999999
429.516 0.9665999999999997
429.823 1.1832999999999991
430.13 0.8666000000000018
430.437 0.9499999999999993
430.743 1.0166000000000004
431.05 1.0333000000000006
431.357 0.8333000000000013
431.664 0.9665999999999997
431.97 0.8166000000000011
432.277 0.8166000000000011
432.584 0.7332999999999998
432.891 0.75
433.197 0.883300000000002
433.504 0.8500000000000014
433.811 0.7666000000000004
434.117 0.8000000000000007
434.424 0.6999999999999993
434.731 0.666599999999999
435.037 0.4665999999999997
435.344 0.633300000000002
435.65 0.8166000000000011
435.957 0.666599999999999
436.262 0.40000000000000213
436.568 0.7332999999999998
436.875 0.48329999999999984
437.181 0.5166000000000004
437.488 0.633300000000002
437.794 0.5833000000000013
438.101 0.6500000000000021
438.407 0.6000000000000014
438.714 0.6166000000000018
439.02 0.6832999999999991
439.327 0.6500000000000021
439.633 0.6000000000000014
439.94 0.6166000000000018
440.246 0.4499999999999993
440.553 0.5166000000000004
440.859 0.4499999999999993
441.163 0.43329999999999913
441.47 0.4499999999999993
441.776 0.48329999999999984
442.083 0.5666000000000011
442.389 0.5333000000000006
442.695 0.5500000000000007
443.002 0.5666000000000011
443.308 0.40000000000000213
443.614 0.43329999999999913
443.921 0.5500000000000007
444.225 0.40000000000000213
444.531 0.5833000000000013
444.838 0.5500000000000007
445.144 0.5500000000000007
445.45 0.6000000000000014
445.757 0.6832999999999991
446.063 0.5500000000000007
446.369 0.666599999999999
446.675 0.5166000000000004
446.979 0.41659999999999897
447.286 0.5166000000000004
447.592 0.5500000000000007
447.898 0.7332999999999998
448.204 0.633300000000002
448.51 0.5
448.817 0.5333000000000006
449.121 0.6166000000000018
449.427 0.5500000000000007
449.733 0.43329999999999913
450.039 0.5
450.345 0.48329999999999984
450.651 0.5166000000000004
450.955 0.5166000000000004
451.261 0.5500000000000007
451.568 0.5666000000000011
451.874 0.5333000000000006
452.18 0.40000000000000213
452.486 0.5833000000000013
452.79 0.33330000000000126
453.096 0.5500000000000007
453.402 0.6832999999999991
453.708 0.5
454.014 0.5333000000000006
454.318 0.41659999999999897
454.624 0.5500000000000007
454.93 0.5
455.236 0.4665999999999997
455.541 0.5333000000000006
455.845 0.633300000000002
456.151 0.4665999999999997
456.457 0.4665999999999997
456.763 0.5
457.067 0.5833000000000013
457.373 0.5
457.679 0.43329999999999913
457.985 0.383300000000002
458.29 0.28330000000000055
458.594 0.4499999999999993
458.9 0.5333000000000006
459.206 0.4499999999999993
459.512 0.5166000000000004
459.815 0.41659999999999897
460.121 0.5
460.427 0.5166000000000004
460.733 0.43329999999999913
461.036 0.41659999999999897
461.342 0.5166000000000004
461.648 0.5833000000000013
461.954 0.43329999999999913
462.257 0.4499999999999993
462.563 0.3500000000000014
462.869 0.5500000000000007
463.172 0.4499999999999993
463.478 0.4499999999999993
463.784 0.5333000000000006
464.089 0.3666000000000018
464.393 0.6500000000000021
464.699 0.5
465.004 0.6000000000000014
465.308 0.4499999999999993
465.613 0.40000000000000213
465.919 0.48329999999999984
466.225 0.5500000000000007
466.528 0.5
466.834 0.3166000000000011
467.139 0.6000000000000014
467.443 0.5
467.748 0.43329999999999913
468.054 0.4665999999999997
468.357 0.5166000000000004
468.663 0.40000000000000213
468.968 0.5500000000000007
469.272 0.48329999999999984
469.577 0.41659999999999897
469.883 0.28330000000000055
470.186 0.4499999999999993
470.492 0.43329999999999913
470.797 0.383300000000002
471.1 0.6832999999999991
471.406 0.6832999999999991
471.711 0.383300000000002
472.014 0.41659999999999897
472.32 0.4665999999999997
472.625 0.6000000000000014
472.929 0.48329999999999984
473.234 0.48329999999999984
473.539 0.48329999999999984
473.843 0.43329999999999913
474.148 0.6000000000000014
474.451 0.5333000000000006
474.756 0.8000000000000007
475.062 0.5166000000000004
475.365 0.41659999999999897
475.67 0.666599999999999
475.973 0.6000000000000014
476.279 0.5333000000000006
476.584 0.6500000000000021
476.887 0.6832999999999991
477.192 0.916599999999999
477.498 0.8500000000000014
477.801 0.8500000000000014
478.106 0.8166000000000011
478.409 0.8000000000000007
478.714 0.7833000000000006
479.017 0.8333000000000013
479.322 1.0
479.628 0.7833000000000006
479.931 0.8500000000000014
480.236 0.9499999999999993
480.539 0.9332999999999991
480.844 0.916599999999999
481.147 0.9000000000000021
481.452 0.916599999999999
481.757 0.75
482.06 0.883300000000002
482.365 0.7666000000000004
482.668 0.916599999999999
482.973 0.8000000000000007
483.276 0.883300000000002
483.581 1.0500000000000007
483.884 0.883300000000002
484.189 0.9332999999999991
484.494 0.633300000000002
484.797 0.666599999999999
485.102 0.666599999999999
485.405 0.5333000000000006
485.71 0.5333000000000006
486.013 0.6500000000000021
486.318 0.5500000000000007
486.621 0.6000000000000014
486.925 0.4499999999999993
487.228 0.633300000000002
487.533 0.6832999999999991
487.836 0.6166000000000018
488.141 0.4499999999999993
488.444 0.7165999999999997
488.748 0.5
489.051 0.43329999999999913
489.356 0.5
489.659 0.40000000000000213
489.964 0.4665999999999997
490.266 0.4665999999999997
490.571 0.5500000000000007
490.874 0.5166000000000004
491.179 0.5833000000000013
491.481 0.633300000000002
491.786 0.41659999999999897
492.089 0.4665999999999997
492.393 0.4499999999999993
492.696 0.4665999999999997
493.001 0.41659999999999897
493.303 0.48329999999999984
493.606 0.6000000000000014
493.911 0.5166000000000004
494.213 0.40000000000000213
494.518 0.5666000000000011
494.821 0.5833000000000013
495.125 0.43329999999999913
495.428 0.5166000000000004
495.732 0.5333000000000006
496.035 0.6166000000000018
496.337 0.3500000000000014
496.642 0.5666000000000011
496.945 0.48329999999999984
497.249 0.4499999999999993
497.552 0.5833000000000013
497.856 0.4499999999999993
498.159 0.3500000000000014
498.461 0.6500000000000021
498.766 0.40000000000000213
499.068 0.3500000000000014
499.372 0.25
499.675 0.4665999999999997
499.977 0.5500000000000007
500.282 0.48329999999999984
500.584 0.5
500.889 0.5
501.191 0.5
501.493 0.4665999999999997
501.798 0.3500000000000014
502.1 0.4499999999999993
502.402 0.43329999999999913
502.707 0.3500000000000014
503.009 0.5
503.314 0.4665999999999997
503.616 0.4665999999999997
503.918 0.5166000000000004
504.222 0.40000000000000213
504.525 0.41659999999999897
504.827 0.48329999999999984
505.131 0.5166000000000004
505.433 0.4665999999999997
505.736 0.3000000000000007
506.04 0.43329999999999913
506.342 0.41659999999999897
506.646 0.48329999999999984
506.949 0.5
507.251 0.43329999999999913
507.555 0.383300000000002
507.857 0.40000000000000213
508.159 0.5166000000000004
508.461 0.40000000000000213
508.766 0.40000000000000213
509.068 0.3166000000000011
509.37 0.43329999999999913
509.674 0.5
509.976 0.40000000000000213
510.278 0.3500000000000014
510.582 0.383300000000002
510.884 0.41659999999999897
511.186 0.41659999999999897
511.49 0.33330000000000126
511.792 0.4665999999999997
512.094 0.383300000000002
512.396 0.41659999999999897
512.701 0.48329999999999984
513.003 0.41659999999999897
513.305 0.5
513.609 0.41659999999999897
513.91 0.41659999999999897
514.212 0.4499999999999993
514.514 0.3000000000000007
514.818 0.43329999999999913
515.12 0.41659999999999897
515.422 0.4665999999999997
515.724 0.383300000000002
516.028 0.41659999999999897
516.33 0.43329999999999913
516.632 0.5
516.934 0.3166000000000011
517.237 0.41659999999999897
517.539 0.5166000000000004
517.841 0.4665999999999997
518.143 0.5166000000000004
518.447 0.3500000000000014
518.749 0.5166000000000004
519.05 0.43329999999999913
519.352 0.40000000000000213
519.656 0.43329999999999913
519.958 0.5
520.26 0.4499999999999993
520.561 0.3666000000000018
520.863 0.5166000000000004
521.167 0.3666000000000018
521.468 0.43329999999999913
521.77 0.48329999999999984
522.072 0.43329999999999913
522.376 0.40000000000000213
522.677 0.48329999999999984
522.979 0.5833000000000013
523.281 0.33330000000000126
523.582 0.33330000000000126
523.884 0.4499999999999993
524.187 0.40000000000000213
524.489 0.5333000000000006
524.791 0.41659999999999897
525.092 0.41659999999999897
525.394 0.383300000000002
525.697 0.4665999999999997
525.999 0.4499999999999993
526.301 0.5500000000000007
526.602 0.5500000000000007
526.904 0.5666000000000011
527.205 0.5166000000000004
527.507 0.4665999999999997
527.81 0.5166000000000004
528.112 0.4665999999999997
528.413 0.4665999999999997
528.715 0.43329999999999913
529.016 0.5
529.318 0.48329999999999984
529.619 0.5500000000000007
529.922 0.4665999999999997
530.224 0.5
530.525 0.33330000000000126
530.827 0.5166000000000004
531.128 0.383300000000002
531.429 0.383300000000002
531.731 0.3666000000000018
532.032 0.383300000000002
532.336 0.40000000000000213
532.637 0.5
532.938 0.4665999999999997
533.24 0.41659999999999897
533.541 0.43329999999999913
533.842 0.41659999999999897
534.143 0.5833000000000013
534.445 0.43329999999999913
534.746 0.3666000000000018
535.047 0.4499999999999993
535.351 0.5666000000000011
535.652 0.43329999999999913
535.953 0.48329999999999984
536.254 0.48329999999999984
536.555 0.4499999999999993
536.857 0.383300000000002
537.158 0.5333000000000006
537.459 0.43329999999999913
537.76 0.43329999999999913
538.061 0.5666000000000011
538.362 0.5
538.664 0.4499999999999993
538.965 0.6999999999999993
539.266 0.383300000000002
539.567 0.5
539.868 0.4499999999999993
540.169 0.5500000000000007
540.472 0.3666000000000018
540.773 0.33330000000000126
541.074 0.5833000000000013
541.375 0.40000000000000213
541.677 0.5166000000000004
541.978 0.4665999999999997
542.279 0.33330000000000126
542.58 0.5500000000000007
542.881 0.383300000000002
543.182 0.41659999999999897
543.483 0.5
543.784 0.383300000000002
544.085 0.4665999999999997
544.385 0.6000000000000014
544.686 0.5333000000000006
544.987 0.3500000000000014
545.288 0.5166000000000004
545.589 0.4499999999999993
545.89 0.5333000000000006
546.191 0.3000000000000007
546.492 0.3666000000000018
546.793 0.48329999999999984
547.094 0.5833000000000013
547.394 0.43329999999999913
547.695 0.3166000000000011
547.996 0.4499999999999993
548.297 0.5166000000000004
548.596 0.4665999999999997
548.897 0.5500000000000007
549.197 0.4665999999999997
549.498 0.4499999999999993
549.799 0.5666000000000011
550.1 0.6166000000000018
550.4 0.383300000000002
550.701 0.41659999999999897
551.002 0.666599999999999
551.303 0.5
551.603 0.6832999999999991
551.904 0.633300000000002
552.205 0.7666000000000004
552.505 0.6166000000000018
552.806 0.7332999999999998
553.107 0.666599999999999
553.407 0.5
553.706 0.5666000000000011
554.007 0.6832999999999991
554.307 0.7165999999999997
554.608 0.6832999999999991
554.909 0.7666000000000004
555.209 0.6500000000000021
555.51 0.5500000000000007
555.81 0.633300000000002
556.111 0.633300000000002
556.411 0.7666000000000004
556.71 0.6832999999999991
557.01 0.7165999999999997
557.311 0.6166000000000018
557.612 0.6166000000000018
557.912 0.5333000000000006
558.213 0.6500000000000021
558.513 0.6166000000000018
558.813 0.5833000000000013
559.112 0.633300000000002
559.412 0.5333000000000006
559.713 0.7165999999999997
560.013 0.43329999999999913
560.314 0.7165999999999997
560.614 0.7833000000000006
560.914 0.5333000000000006
561.213 0.7332999999999998
561.513 0.6166000000000018
561.814 0.5
562.114 0.4665999999999997
562.414 0.6832999999999991
562.715 0.5500000000000007
563.015 0.48329999999999984
563.313 0.48329999999999984
563.614 0.48329999999999984
563.914 0.5500000000000007
564.214 0.4499999999999993
564.515 0.5833000000000013
564.813 0.7165999999999997
565.113 0.6000000000000014
565.413 0.5
565.714 0.43329999999999913
566.014 0.5666000000000011
566.312 0.5833000000000013
566.612 0.5500000000000007
566.912 0.5
567.213 0.5166000000000004
567.513 0.5166000000000004
567.811 0.6166000000000018
568.111 0.5166000000000004
568.411 0.48329999999999984
568.712 0.48329999999999984
569.012 0.4499999999999993
569.31 0.6500000000000021
569.61 0.41659999999999897
569.91 0.4499999999999993
570.21 0.5833000000000013
570.508 0.43329999999999913
570.808 0.41659999999999897
571.108 0.666599999999999
571.408 0.5666000000000011
571.706 0.5500000000000007
572.006 0.5333000000000006
572.306 0.5333000000000006
572.607 0.4665999999999997
572.904 0.5
573.204 0.5
573.505 0.48329999999999984
573.805 0.6832999999999991
574.102 0.4665999999999997
574.402 0.4665999999999997
574.702 0.5
575.002 0.5833000000000013
575.3 0.5
575.6 0.6166000000000018
575.9 0.4499999999999993
576.198 0.48329999999999984
576.498 0.6166000000000018
576.798 0.48329999999999984
577.098 0.4665999999999997
577.395 0.5500000000000007
577.695 0.383300000000002
577.995 0.5166000000000004
578.293 0.41659999999999897
578.593 0.4665999999999997
578.893 0.5500000000000007
579.19 0.383300000000002
579.49 0.40000000000000213
579.79 0.5
580.088 0.5
580.387 0.633300000000002
580.687 0.4499999999999993
580.985 0.5166000000000004
581.285 0.5833000000000013
581.584 0.383300000000002
581.882 0.5333000000000006
582.182 0.6832999999999991
582.482 0.5
582.779 0.6500000000000021
583.079 0.4499999999999993
583.378 0.6166000000000018
583.676 0.43329999999999913
583.976 0.3166000000000011
584.275 0.4665999999999997
584.573 0.4665999999999997
584.873 0.6000000000000014
585.17 0.5
585.47 0.6166000000000018
585.769 0.5500000000000007
586.067 0.3500000000000014
586.367 0.5666000000000011
586.666 0.3500000000000014
586.964 0.5166000000000004
587.263 0.5833000000000013
587.561 0.43329999999999913
587.86 0.5166000000000004
588.16 0.5
588.457 0.48329999999999984
588.757 0.6166000000000018
589.054 0.41659999999999897
589.354 0.5333000000000006
589.653 0.5333000000000006
589.951 0.5
590.25 0.4499999999999993
590.547 0.383300000000002
590.847 0.5333000000000006
591.144 0.4499999999999993
591.444 0.5333000000000006
591.743 0.41659999999999897
592.04 0.5166000000000004
592.34 0.5333000000000006
592.637 0.5333000000000006
592.936 0.4499999999999993
593.234 0.4499999999999993
593.533 0.383300000000002
593.832 0.6000000000000014
594.13 0.5833000000000013
594.429 0.5333000000000006
594.726 0.4665999999999997
595.026 0.33330000000000126
595.323 0.5166000000000004
595.622 0.5500000000000007
595.919 0.40000000000000213
596.219 0.5500000000000007
596.516 0.5
596.815 0.383300000000002
597.112 0.6000000000000014
597.411 0.5833000000000013
597.709 0.633300000000002
598.008 0.5
598.305 0.4665999999999997
598.604 0.21659999999999968
598.901 0.4665999999999997
599.2 0.5333000000000006
599.497 0.4499999999999993
599.797 0.6000000000000014
600.094 0.5666000000000011
600.393 0.48329999999999984
600.69 0.383300000000002
600.989 0.48329999999999984
601.286 0.41659999999999897
601.585 0.43329999999999913
601.882 0.48329999999999984
602.181 0.4499999999999993
602.478 0.4499999999999993
602.777 0.41659999999999897
603.074 0.4665999999999997
603.373 0.4665999999999997
603.67 0.5333000000000006
603.969 0.5333000000000006
604.266 0.5333000000000006
604.563 0.383300000000002
604.862 0.6000000000000014
605.159 0.5833000000000013
605.458 0.5333000000000006
605.755 0.48329999999999984
606.054 0.4499999999999993
606.351 0.5166000000000004
606.65 0.5166000000000004
606.946 0.5833000000000013
607.243 0.5500000000000007
607.542 0.5333000000000006
607.839 0.5500000000000007
608.138 0.4499999999999993
608.435 0.5666000000000011
608.732 0.41659999999999897
609.03 0.5
609.327 0.5666000000000011
609.626 0.5666000000000011
609.923 0.666599999999999
610.22 0.4665999999999997
610.518 0.666599999999999
610.815 0.6832999999999991
611.114 0.5333000000000006
611.411 0.6500000000000021
611.707 0.5333000000000006
612.006 0.6000000000000014
612.303 0.6500000000000021
612.601 0.6500000000000021
612.898 0.5500000000000007
613.195 0.5333000000000006
613.493 0.633300000000002
613.79 0.666599999999999
614.087 0.43329999999999913
614.385 0.75
614.682 0.5166000000000004
614.979 0.5333000000000006
615.277 0.6000000000000014
615.574 0.6999999999999993
615.87 0.6000000000000014
616.169 0.633300000000002
616.466 0.5666000000000011
616.764 0.5
617.061 0.6500000000000021
617.357 0.6832999999999991
617.656 0.5666000000000011
617.952 0.6500000000000021
618.249 0.7165999999999997
618.545 0.6000000000000014
618.844 0.6000000000000014
619.14 0.5333000000000006
619.437 0.4665999999999997
619.735 0.383300000000002
620.032 0.633300000000002
620.328 0.5333000000000006
620.626 0.48329999999999984
620.923 0.40000000000000213
621.219 0.5666000000000011
621.518 0.6500000000000021
621.814 0.5
622.11 0.6500000000000021
622.407 0.43329999999999913
622.705 0.5
623.002 0.6000000000000014
623.298 0.5333000000000006
623.594 0.4665999999999997
623.893 0.383300000000002
624.189 0.5333000000000006
624.485 0.4499999999999993
624.784 0.6000000000000014
625.08 0.6000000000000014
625.376 0.666599999999999
625.672 0.3500000000000014
625.971 0.5333000000000006
626.267 0.5166000000000004
626.563 0.4665999999999997
626.859 0.5333000000000006
627.158 0.5
627.454 0.5333000000000006
627.75 0.4665999999999997
628.046 0.5166000000000004
628.342 0.41659999999999897
628.641 0.40000000000000213
628.937 0.33330000000000126
629.233 0.4499999999999993
629.529 0.4499999999999993
629.827 0.633300000000002
630.123 0.3666000000000018
630.419 0.5833000000000013
630.715 0.5166000000000004
631.011 0.5166000000000004
631.31 0.48329999999999984
631.606 0.4499999999999993
631.902 0.5
632.198 0.4665999999999997
632.494 0.6000000000000014
632.792 0.3666000000000018
633.088 0.43329999999999913
633.384 0.5666000000000011
633.68 0.633300000000002
633.976 0.5333000000000006
634.272 0.5
634.57 0.33330000000000126
634.866 0.43329999999999913
635.162 0.5
635.458 0.5333000000000006
635.754 0.41659999999999897
636.05 0.5
636.347 0.5
636.643 0.5
636.939 0.43329999999999913
637.235 0.666599999999999
637.531 0.4665999999999997
637.827 0.48329999999999984
638.123 0.5666000000000011
638.421 0.5166000000000004
638.716 0.3500000000000014
639.012 0.5
639.308 0.6500000000000021
639.604 0.5166000000000004
639.9 0.5166000000000004
640.195 0.40000000000000213
640.491 0.41659999999999897
640.789 0.5
641.085 0.5666000000000011
641.381 0.48329999999999984
641.676 0.48329999999999984
641.972 0.5333000000000006
642.268 0.43329999999999913
642.563 0.6166000000000018
642.859 0.4665999999999997
643.155 0.5166000000000004
643.451 0.6832999999999991
643.746 0.5333000000000006
644.044 0.43329999999999913
644.34 0.666599999999999
644.635 0.4665999999999997
644.931 0.5333000000000006
645.227 0.5500000000000007
645.522 0.5
645.818 0.4665999999999997
646.113 0.43329999999999913
646.409 0.5166000000000004
646.704 0.5
647.0 0.5666000000000011
647.296 0.6500000000000021
647.591 0.4499999999999993
647.887 0.41659999999999897
648.182 0.5833000000000013
648.478 0.666599999999999
648.773 0.7165999999999997
649.069 0.4499999999999993
649.366 0.5
649.662 0.4665999999999997
649.957 0.48329999999999984
650.253 0.6999999999999993
650.548 0.43329999999999913
650.844 0.5833000000000013
651.139 0.5833000000000013
651.434 0.4665999999999997
651.73 0.5
652.025 0.6500000000000021
652.321 0.7666000000000004
652.616 0.5833000000000013
652.911 0.5833000000000013
653.207 0.5166000000000004
653.502 0.666599999999999
653.797 0.666599999999999
654.093 0.4665999999999997
654.388 0.6000000000000014
654.683 0.5500000000000007
654.979 0.5500000000000007
655.274 0.633300000000002
655.567 0.5666000000000011
655.863 0.5333000000000006
656.158 0.6000000000000014
656.453 0.5833000000000013
656.748 0.666599999999999
657.044 0.7666000000000004
657.339 0.7666000000000004
657.634 0.6166000000000018
657.929 0.6000000000000014
658.224 0.5500000000000007
658.52 0.8000000000000007
658.815 0.7165999999999997
659.11 0.8333000000000013
659.405 0.6832999999999991
659.7 0.8333000000000013
659.995 0.8500000000000014
660.291 0.7666000000000004
660.586 0.8166000000000011
660.879 0.8333000000000013
661.174 0.6832999999999991
661.469 0.7833000000000006
661.764 0.8333000000000013
662.059 1.0166000000000004
662.354 0.7666000000000004
662.649 0.8000000000000007
662.944 0.8000000000000007
663.239 0.883300000000002
663.534 0.8666000000000018
663.83 0.7833000000000006
664.122 0.6999999999999993
664.417 0.7833000000000006
664.713 0.7833000000000006
665.008 0.666599999999999
665.302 0.7833000000000006
665.597 0.7332999999999998
665.892 0.6832999999999991
666.187 0.8166000000000011
666.48 0.8166000000000011
666.775 0.633300000000002
667.07 0.6166000000000018
667.365 0.75
667.66 0.6000000000000014
667.955 0.5833000000000013
668.25 0.5333000000000006
668.542 0.6832999999999991
668.837 0.4499999999999993
669.132 0.8000000000000007
669.427 0.41659999999999897
669.722 0.5166000000000004
670.017 0.6500000000000021
670.31 0.5833000000000013
670.604 0.5833000000000013
670.899 0.633300000000002
671.194 0.5833000000000013
671.489 0.666599999999999
671.783 0.6166000000000018
672.076 0.6166000000000018
672.371 0.6999999999999993
672.666 0.5666000000000011
672.96 0.666599999999999
673.255 0.5166000000000004
673.548 0.5500000000000007
673.842 0.5666000000000011
674.137 0.6999999999999993
674.432 0.5333000000000006
674.727 0.5666000000000011
675.019 0.6832999999999991
675.314 0.5333000000000006
675.608 0.5500000000000007
675.903 0.6500000000000021
676.196 0.5
676.49 0.6166000000000018
676.785 0.666599999999999
677.079 0.6999999999999993
677.374 0.6166000000000018
677.667 0.5166000000000004
677.961 0.5500000000000007
678.256 0.383300000000002
678.55 0.5833000000000013
678.843 0.5166000000000004
679.137 0.5666000000000011
679.432 0.5500000000000007
679.726 0.5
680.019 0.5
680.313 0.4499999999999993
680.608 0.5
680.902 0.5666000000000011
681.195 0.4665999999999997
681.489 0.5833000000000013
681.784 0.5833000000000013
682.076 0.5500000000000007
682.37 0.5833000000000013
682.665 0.5166000000000004
682.959 0.48329999999999984
683.252 0.5333000000000006
683.546 0.633300000000002
683.84 0.5
684.133 0.5
684.427 0.5333000000000006
684.721 0.5166000000000004
685.014 0.43329999999999913
685.308 0.5166000000000004
685.602 0.3666000000000018
685.895 0.41659999999999897
686.189 0.7165999999999997
686.483 0.666599999999999
686.778 0.40000000000000213
687.07 0.5333000000000006
687.364 0.6000000000000014
687.658 0.41659999999999897
687.951 0.6832999999999991
688.245 0.6000000000000014
688.537 0.5166000000000004
688.831 0.41659999999999897
689.125 0.5666000000000011
689.418 0.23329999999999984
689.712 0.5333000000000006
690.006 0.666599999999999
690.298 0.6166000000000018
690.592 0.5166000000000004
690.886 0.4499999999999993
691.178 0.4499999999999993
691.473 0.48329999999999984
691.767 0.6000000000000014
692.059 0.5166000000000004
692.353 0.633300000000002
692.645 0.5500000000000007
692.939 0.41659999999999897
693.233 0.5
693.525 0.5500000000000007
693.819 0.48329999999999984
694.111 0.48329999999999984
694.405 0.4499999999999993
694.699 0.5666000000000011
694.991 0.5666000000000011
695.285 0.41659999999999897
695.577 0.6166000000000018
695.871 0.33330000000000126
696.165 0.5166000000000004
696.457 0.4665999999999997
696.751 0.5
697.043 0.383300000000002
697.337 0.41659999999999897
697.629 0.5833000000000013
697.923 0.5833000000000013
698.217 0.3500000000000014
698.509 0.5833000000000013
698.802 0.6000000000000014
699.094 0.5333000000000006
699.388 0.75
699.68 0.666599999999999
699.974 0.4665999999999997
700.266 0.5833000000000013
700.56 0.383300000000002
700.853 0.43329999999999913
701.145 0.5500000000000007
701.439 0.5
701.731 0.4665999999999997
702.025 0.5
702.316 0.383300000000002
702.61 0.5833000000000013
702.902 0.5
703.196 0.633300000000002
703.487 0.5333000000000006
703.781 0.43329999999999913
704.073 0.6832999999999991
704.367 0.4665999999999997
704.658 0.5500000000000007
704.952 0.5833000000000013
705.244 0.4665999999999997
705.537 0.6166000000000018
705.829 0.40000000000000213
706.122 0.5333000000000006
706.414 0.48329999999999984
706.708 0.5
706.999 0.5500000000000007
707.293 0.5
