# Created: 2019-11-28 13:05:40.704475
# rshift intensity
76.1738 0.25
76.4989 0.31670000000000087
76.824 0.23340000000000316
77.1491 0.26670000000000016
77.4721 0.3000000000000007
77.7972 0.20000000000000284
78.1223 0.11670000000000158
78.4474 0.216700000000003
78.7724 0.1667000000000023
79.0975 0.10000000000000142
79.4204 0.08340000000000103
79.7454 0.1667000000000023
80.0704 0.13340000000000174
80.3954 0.08340000000000103
80.7204 0.10000000000000142
81.0454 0.13340000000000174
81.3682 0.13340000000000174
81.6931 0.13340000000000174
82.0181 0.11670000000000158
82.343 0.20000000000000284
82.6679 0.06670000000000087
82.9907 0.10000000000000142
83.3156 0.1667000000000023
83.6405 0.08340000000000103
83.9654 0.1667000000000023
84.2903 0.0
84.613 0.13340000000000174
84.9378 0.18340000000000245
85.2626 0.10000000000000142
85.5875 0.08340000000000103
85.9101 0.18340000000000245
86.2349 0.15000000000000213
86.5597 0.10000000000000142
86.8845 0.03340000000000032
87.2093 0.08340000000000103
87.5319 0.10000000000000142
87.8566 0.15000000000000213
88.1814 0.1667000000000023
88.5061 0.08340000000000103
88.8286 0.20000000000000284
89.1533 0.25
89.478 0.1667000000000023
89.8027 0.10000000000000142
90.1252 0.10000000000000142
90.4499 0.13340000000000174
90.7745 0.15000000000000213
91.0992 0.1667000000000023
91.4216 0.1667000000000023
91.7462 0.08340000000000103
92.0708 0.15000000000000213
92.3954 0.10000000000000142
92.7179 0.13340000000000174
93.0424 0.08340000000000103
93.367 0.11670000000000158
93.6915 0.216700000000003
94.0139 0.11670000000000158
94.3384 0.13340000000000174
94.6629 0.15000000000000213
94.9853 0.08340000000000103
95.3098 0.13340000000000174
95.6342 0.08340000000000103
95.9587 0.216700000000003
96.281 0.10000000000000142
96.6055 0.20000000000000284
96.9299 0.20000000000000284
97.2522 0.06670000000000087
97.5766 0.15000000000000213
97.901 0.11670000000000158
98.2232 0.13340000000000174
98.5476 0.11670000000000158
98.8719 0.10000000000000142
99.1942 0.11670000000000158
99.5185 0.20000000000000284
99.8428 0.11670000000000158
100.165 0.11670000000000158
100.489 0.06670000000000087
100.814 0.216700000000003
101.136 0.23340000000000316
101.46 0.11670000000000158
101.784 0.10000000000000142
102.106 0.18340000000000245
102.431 0.216700000000003
102.755 0.15000000000000213
103.077 0.15000000000000213
103.401 0.216700000000003
103.725 0.06670000000000087
104.047 0.216700000000003
104.372 0.06670000000000087
104.696 0.13340000000000174
105.018 0.20000000000000284
105.342 0.15000000000000213
105.666 0.1667000000000023
105.988 0.08340000000000103
106.312 0.13340000000000174
106.634 0.18340000000000245
106.958 0.25
107.282 0.26670000000000016
107.604 0.11670000000000158
107.928 0.08340000000000103
108.252 0.06670000000000087
108.574 0.20000000000000284
108.898 0.08340000000000103
109.22 0.08340000000000103
109.544 0.10000000000000142
109.868 0.08340000000000103
110.19 0.10000000000000142
110.514 0.10000000000000142
110.836 0.06670000000000087
111.159 0.06670000000000087
111.483 0.15000000000000213
111.805 0.15000000000000213
112.129 0.216700000000003
112.451 0.1667000000000023
112.775 0.11670000000000158
113.096 0.11670000000000158
113.42 0.10000000000000142
113.744 0.11670000000000158
114.066 0.13340000000000174
114.39 0.25
114.711 0.15000000000000213
115.035 0.15000000000000213
115.357 0.10000000000000142
115.681 0.08340000000000103
116.004 0.25
116.326 0.11670000000000158
116.65 0.15000000000000213
116.971 0.23340000000000316
117.295 0.26670000000000016
117.617 0.1667000000000023
117.94 0.08340000000000103
118.262 0.15000000000000213
118.586 0.13340000000000174
118.907 0.13340000000000174
119.231 0.216700000000003
119.554 0.15000000000000213
119.876 0.13340000000000174
120.199 0.20000000000000284
120.521 0.13340000000000174
120.845 0.15000000000000213
121.166 0.10000000000000142
121.49 0.06670000000000087
121.811 0.11670000000000158
122.135 0.15000000000000213
122.456 0.10000000000000142
122.78 0.1667000000000023
123.101 0.18340000000000245
123.424 0.18340000000000245
123.746 0.05000000000000071
124.069 0.15000000000000213
124.391 0.06670000000000087
124.714 0.216700000000003
125.035 0.13340000000000174
125.359 0.1667000000000023
125.68 0.15000000000000213
126.004 0.1667000000000023
126.325 0.18340000000000245
126.648 0.1667000000000023
126.97 0.20000000000000284
127.291 0.11670000000000158
127.614 0.11670000000000158
127.935 0.15000000000000213
128.259 0.216700000000003
128.58 0.15000000000000213
128.903 0.25
129.224 0.20000000000000284
129.548 0.31670000000000087
129.869 0.08340000000000103
130.192 0.11670000000000158
130.513 0.13340000000000174
130.834 0.11670000000000158
131.158 0.18340000000000245
131.479 0.216700000000003
131.802 0.15000000000000213
132.123 0.25
132.446 0.10000000000000142
132.767 0.13340000000000174
133.09 0.20000000000000284
133.411 0.18340000000000245
133.733 0.216700000000003
134.056 0.20000000000000284
134.377 0.15000000000000213
134.7 0.25
135.021 0.11670000000000158
135.342 0.1667000000000023
135.665 0.18340000000000245
135.986 0.11670000000000158
136.309 0.18340000000000245
136.63 0.216700000000003
136.951 0.06670000000000087
137.274 0.216700000000003
137.595 0.1667000000000023
137.918 0.11670000000000158
138.238 0.20000000000000284
138.559 0.216700000000003
138.882 0.13340000000000174
139.203 0.10000000000000142
139.526 0.08340000000000103
139.847 0.15000000000000213
140.168 0.20000000000000284
140.491 0.10000000000000142
140.811 0.13340000000000174
141.132 0.03340000000000032
141.455 0.20000000000000284
141.776 0.06670000000000087
142.097 0.2834000000000003
142.419 0.10000000000000142
142.74 0.216700000000003
143.061 0.18340000000000245
143.384 0.05000000000000071
143.704 0.216700000000003
144.027 0.33340000000000103
144.348 0.11670000000000158
144.668 0.15000000000000213
144.991 0.13340000000000174
145.312 0.1667000000000023
145.632 0.13340000000000174
145.955 0.18340000000000245
146.276 0.10000000000000142
146.596 0.216700000000003
146.917 0.15000000000000213
147.24 0.15000000000000213
147.56 0.11670000000000158
147.881 0.1667000000000023
148.203 0.1667000000000023
148.524 0.15000000000000213
148.844 0.15000000000000213
149.167 0.13340000000000174
149.487 0.15000000000000213
149.808 0.15000000000000213
150.131 0.23340000000000316
150.451 0.1667000000000023
150.771 0.15000000000000213
151.092 0.15000000000000213
151.414 0.11670000000000158
151.735 0.216700000000003
152.055 0.15000000000000213
152.378 0.06670000000000087
152.698 0.15000000000000213
153.018 0.1667000000000023
153.339 0.18340000000000245
153.661 0.11670000000000158
153.982 0.3000000000000007
154.302 0.11670000000000158
154.622 0.10000000000000142
154.945 0.15000000000000213
155.265 0.23340000000000316
155.585 0.1667000000000023
155.905 0.15000000000000213
156.228 0.18340000000000245
156.548 0.03340000000000032
156.868 0.13340000000000174
157.188 0.26670000000000016
157.511 0.20000000000000284
157.831 0.05000000000000071
158.151 0.10000000000000142
158.471 0.13340000000000174
158.794 0.15000000000000213
159.114 0.11670000000000158
159.434 0.15000000000000213
159.754 0.15000000000000213
160.074 0.10000000000000142
160.396 0.10000000000000142
160.717 0.1667000000000023
161.037 0.13340000000000174
161.357 0.18340000000000245
161.679 0.23340000000000316
161.999 0.13340000000000174
162.319 0.20000000000000284
162.639 0.20000000000000284
162.959 0.18340000000000245
163.281 0.20000000000000284
163.601 0.23340000000000316
163.921 0.15000000000000213
164.241 0.18340000000000245
164.561 0.15000000000000213
164.881 0.08340000000000103
165.203 0.23340000000000316
165.523 0.1667000000000023
165.843 0.13340000000000174
166.163 0.3000000000000007
166.483 0.08340000000000103
166.803 0.13340000000000174
167.125 0.1667000000000023
167.445 0.1667000000000023
167.764 0.13340000000000174
168.084 0.25
168.404 0.11670000000000158
168.724 0.11670000000000158
169.046 0.20000000000000284
169.366 0.18340000000000245
169.685 0.216700000000003
170.005 0.13340000000000174
170.325 0.13340000000000174
170.645 0.1667000000000023
170.964 0.15000000000000213
171.286 0.10000000000000142
171.606 0.25
171.926 0.11670000000000158
172.245 0.1667000000000023
172.565 0.06670000000000087
172.885 0.1667000000000023
173.204 0.1667000000000023
173.524 0.15000000000000213
173.846 0.15000000000000213
174.166 0.18340000000000245
174.485 0.20000000000000284
174.805 0.25
175.124 0.10000000000000142
175.444 0.13340000000000174
175.764 0.18340000000000245
176.083 0.06670000000000087
176.403 0.1667000000000023
176.722 0.08340000000000103
177.044 0.1667000000000023
177.363 0.18340000000000245
177.683 0.15000000000000213
178.002 0.15000000000000213
178.322 0.20000000000000284
178.641 0.25
178.961 0.25
179.28 0.26670000000000016
179.6 0.3000000000000007
179.919 0.18340000000000245
180.239 0.13340000000000174
180.558 0.1667000000000023
180.877 0.20000000000000284
181.197 0.2834000000000003
181.516 0.20000000000000284
181.838 0.216700000000003
182.157 0.18340000000000245
182.476 0.11670000000000158
182.796 0.216700000000003
183.115 0.1667000000000023
183.434 0.25
183.754 0.10000000000000142
184.073 0.13340000000000174
184.392 0.13340000000000174
184.712 0.15000000000000213
185.031 0.26670000000000016
185.35 0.06670000000000087
185.669 0.23340000000000316
185.989 0.2834000000000003
186.308 0.1667000000000023
186.627 0.25
186.946 0.08340000000000103
187.265 0.23340000000000316
187.585 0.13340000000000174
187.904 0.11670000000000158
188.223 0.1667000000000023
188.542 0.15000000000000213
188.861 0.216700000000003
189.18 0.10000000000000142
189.499 0.25
189.818 0.1667000000000023
190.138 0.10000000000000142
190.457 0.08340000000000103
190.776 0.1667000000000023
191.095 0.08340000000000103
191.414 0.13340000000000174
191.733 0.13340000000000174
192.052 0.216700000000003
192.371 0.18340000000000245
192.69 0.25
193.009 0.13340000000000174
193.328 0.10000000000000142
193.647 0.2834000000000003
193.966 0.06670000000000087
194.285 0.13340000000000174
194.602 0.26670000000000016
194.92 0.1667000000000023
195.239 0.15000000000000213
195.558 0.15000000000000213
195.877 0.216700000000003
196.196 0.1667000000000023
196.515 0.05000000000000071
196.834 0.1667000000000023
197.153 0.216700000000003
197.471 0.08340000000000103
197.79 0.1667000000000023
198.109 0.20000000000000284
198.428 0.18340000000000245
198.747 0.216700000000003
199.065 0.33340000000000103
199.382 0.1667000000000023
199.701 0.15000000000000213
200.02 0.25
200.338 0.20000000000000284
200.657 0.216700000000003
200.976 0.216700000000003
201.295 0.15000000000000213
201.613 0.1667000000000023
201.932 0.20000000000000284
202.251 0.20000000000000284
202.567 0.18340000000000245
202.886 0.216700000000003
203.204 0.18340000000000245
203.523 0.1667000000000023
203.842 0.3000000000000007
204.16 0.23340000000000316
204.479 0.08340000000000103
204.797 0.13340000000000174
205.114 0.216700000000003
205.433 0.15000000000000213
205.751 0.23340000000000316
206.07 0.10000000000000142
206.388 0.26670000000000016
206.707 0.216700000000003
207.025 0.13340000000000174
207.342 0.216700000000003
207.66 0.216700000000003
207.979 0.216700000000003
208.297 0.1667000000000023
208.615 0.23340000000000316
208.934 0.18340000000000245
209.25 0.216700000000003
209.569 0.13340000000000174
209.887 0.11670000000000158
210.205 0.25
210.524 0.25
210.842 0.25
211.158 0.216700000000003
211.477 0.18340000000000245
211.795 0.25
212.113 0.15000000000000213
212.432 0.1667000000000023
212.75 0.18340000000000245
213.066 0.18992767014536227
213.385 0.1883608062101949
213.703 0.18869876603777058
214.021 0.1870252346835244
214.339 0.18862450864050473
214.656 0.18852601817002324
214.974 0.1878703128531356
215.292 0.23340000000000316
215.61 0.1667000000000023
215.926 0.23340000000000316
216.245 0.18340000000000245
216.563 0.1667000000000023
216.881 0.31670000000000087
217.199 0.20000000000000284
217.515 0.23340000000000316
217.833 0.1667000000000023
218.151 0.13340000000000174
218.469 0.20000000000000284
218.785 0.18340000000000245
219.104 0.216700000000003
219.422 0.13340000000000174
219.74 0.10000000000000142
220.056 0.05000000000000071
220.374 0.26670000000000016
220.692 0.23340000000000316
221.01 0.20000000000000284
221.326 0.11670000000000158
221.644 0.216700000000003
221.962 0.18340000000000245
222.28 0.26670000000000016
222.596 0.20000000000000284
222.914 0.13340000000000174
223.232 0.18340000000000245
223.547 0.25
223.865 0.216700000000003
224.183 0.13340000000000174
224.501 0.31670000000000087
224.817 0.1667000000000023
225.135 0.20000000000000284
225.453 0.08340000000000103
225.768 0.26670000000000016
226.086 0.216700000000003
226.404 0.20000000000000284
226.722 0.38340000000000174
227.038 0.26670000000000016
227.355 0.26670000000000016
227.673 0.20000000000000284
227.989 0.18340000000000245
228.307 0.26670000000000016
228.625 0.23340000000000316
228.94 0.18340000000000245
229.258 0.2834000000000003
229.576 0.23340000000000316
229.891 0.20000000000000284
230.209 0.1667000000000023
230.527 0.20000000000000284
230.842 0.13340000000000174
231.16 0.26670000000000016
231.478 0.23340000000000316
231.793 0.23340000000000316
232.111 0.2834000000000003
232.428 0.23340000000000316
232.744 0.20000000000000284
233.062 0.2834000000000003
233.379 0.26670000000000016
233.695 0.20000000000000284
234.012 0.1667000000000023
234.33 0.20000000000000284
234.645 0.3500000000000014
234.963 0.10000000000000142
235.278 0.2834000000000003
235.596 0.23340000000000316
235.913 0.26670000000000016
236.229 0.15000000000000213
236.546 0.216700000000003
236.864 0.20000000000000284
237.179 0.25
237.497 0.15000000000000213
237.812 0.1667000000000023
238.129 0.2834000000000003
238.447 0.3000000000000007
238.762 0.23340000000000316
239.08 0.26670000000000016
239.395 0.2834000000000003
239.712 0.20000000000000284
240.03 0.3667000000000016
240.345 0.20000000000000284
240.662 0.23340000000000316
240.978 0.25
241.295 0.33340000000000103
241.61 0.23340000000000316
241.927 0.3000000000000007
242.245 0.23340000000000316
242.56 0.3000000000000007
242.877 0.31670000000000087
243.192 0.216700000000003
243.51 0.20000000000000284
243.825 0.25
244.142 0.23340000000000316
244.459 0.15000000000000213
244.774 0.18340000000000245
245.092 0.18340000000000245
245.407 0.18340000000000245
245.724 0.18340000000000245
246.039 0.31670000000000087
246.356 0.23340000000000316
246.671 0.216700000000003
246.988 0.26670000000000016
247.303 0.23340000000000316
247.62 0.15000000000000213
247.938 0.26670000000000016
248.253 0.31670000000000087
248.57 0.18340000000000245
248.885 0.10000000000000142
249.202 0.25
249.517 0.23340000000000316
249.834 0.3500000000000014
250.149 0.13340000000000174
250.466 0.26670000000000016
250.781 0.13340000000000174
251.098 0.23340000000000316
251.412 0.216700000000003
251.729 0.25
252.044 0.20000000000000284
252.361 0.26670000000000016
252.676 0.216700000000003
252.993 0.08340000000000103
253.308 0.23340000000000316
253.625 0.2834000000000003
253.94 0.20000000000000284
254.256 0.26670000000000016
254.571 0.25
254.888 0.25
255.203 0.25
255.518 0.18340000000000245
255.834 0.25
256.149 0.25
256.466 0.15000000000000213
256.781 0.20000000000000284
257.097 0.216700000000003
257.412 0.3000000000000007
257.729 0.26670000000000016
258.044 0.08340000000000103
258.36 0.216700000000003
258.675 0.1667000000000023
258.99 0.25
259.306 0.20000000000000284
259.621 0.18340000000000245
259.938 0.26670000000000016
260.252 0.25
260.569 0.2834000000000003
260.883 0.20000000000000284
261.198 0.2834000000000003
261.515 0.15000000000000213
261.829 0.26670000000000016
262.146 0.23340000000000316
262.46 0.20000000000000284
262.775 0.20000000000000284
263.091 0.20000000000000284
263.406 0.15000000000000213
263.723 0.33340000000000103
264.037 0.33340000000000103
264.354 0.20000000000000284
264.668 0.1667000000000023
264.982 0.216700000000003
265.299 0.23340000000000316
265.613 0.08340000000000103
265.928 0.3000000000000007
266.244 0.23340000000000316
266.559 0.20000000000000284
266.875 0.25
267.189 0.15000000000000213
267.504 0.25
267.82 0.3000000000000007
268.134 0.23340000000000316
268.449 0.08340000000000103
268.765 0.15000000000000213
269.079 0.20000000000000284
269.394 0.23340000000000316
269.71 0.11670000000000158
270.024 0.25
270.341 0.18340000000000245
270.655 0.1667000000000023
270.969 0.216700000000003
271.286 0.25
271.6 0.10000000000000142
271.914 0.10000000000000142
272.23 0.23340000000000316
272.544 0.20000000000000284
272.859 0.1667000000000023
273.175 0.15000000000000213
273.489 0.15000000000000213
273.803 0.31670000000000087
274.119 0.20000000000000284
274.433 0.15000000000000213
274.747 0.216700000000003
275.062 0.25
275.378 0.26670000000000016
275.692 0.25
276.006 0.26670000000000016
276.322 0.20000000000000284
276.636 0.216700000000003
276.95 0.26670000000000016
277.266 0.20000000000000284
277.58 0.1667000000000023
277.894 0.23340000000000316
278.208 0.3000000000000007
278.524 0.23340000000000316
278.838 0.26670000000000016
279.152 0.26670000000000016
279.468 0.18340000000000245
279.782 0.11670000000000158
280.096 0.15000000000000213
280.41 0.11670000000000158
280.726 0.25
281.04 0.1667000000000023
281.354 0.216700000000003
281.668 0.25
281.983 0.23340000000000316
282.297 0.23340000000000316
282.611 0.23340000000000316
282.925 0.216700000000003
283.241 0.20000000000000284
283.555 0.3000000000000007
283.868 0.216700000000003
284.182 0.216700000000003
284.498 0.33340000000000103
284.812 0.13340000000000174
285.126 0.25
285.439 0.3500000000000014
285.753 0.216700000000003
286.069 0.23340000000000316
286.383 0.3500000000000014
286.696 0.13340000000000174
287.01 0.23340000000000316
287.326 0.1667000000000023
287.639 0.25
287.953 0.20000000000000284
288.267 0.25
288.58 0.3000000000000007
288.896 0.20000000000000284
289.21 0.3500000000000014
289.523 0.20000000000000284
289.837 0.25
290.15 0.25
290.466 0.26670000000000016
290.78 0.216700000000003
291.093 0.20000000000000284
291.407 0.31670000000000087
291.72 0.20000000000000284
292.034 0.216700000000003
292.349 0.216700000000003
292.663 0.15000000000000213
292.976 0.20000000000000284
293.29 0.23340000000000316
293.603 0.33340000000000103
293.917 0.18340000000000245
294.232 0.20000000000000284
294.546 0.18340000000000245
294.859 0.26670000000000016
295.172 0.15000000000000213
295.486 0.216700000000003
295.799 0.18340000000000245
296.113 0.18340000000000245
296.428 0.20000000000000284
296.741 0.23340000000000316
297.055 0.23340000000000316
297.368 0.3500000000000014
297.681 0.18340000000000245
297.995 0.18340000000000245
298.308 0.1667000000000023
298.621 0.3000000000000007
298.937 0.20000000000000284
299.25 0.3500000000000014
299.563 0.26670000000000016
299.876 0.26670000000000016
300.19 0.3667000000000016
300.503 0.20000000000000284
300.816 0.2834000000000003
301.129 0.20000000000000284
301.442 0.13340000000000174
301.756 0.20000000000000284
302.071 0.216700000000003
302.384 0.08340000000000103
302.697 0.31670000000000087
303.01 0.10000000000000142
303.323 0.3000000000000007
303.637 0.13340000000000174
303.95 0.20000000000000284
304.263 0.1667000000000023
304.576 0.23340000000000316
304.889 0.2834000000000003
305.202 0.4167000000000023
305.515 0.31670000000000087
305.828 0.2834000000000003
306.141 0.3000000000000007
306.456 0.1667000000000023
306.769 0.216700000000003
307.082 0.3500000000000014
307.395 0.3000000000000007
307.708 0.23340000000000316
308.021 0.3000000000000007
308.334 0.3000000000000007
308.647 0.38340000000000174
308.96 0.13340000000000174
309.273 0.20000000000000284
309.586 0.33340000000000103
309.899 0.11670000000000158
310.212 0.466700000000003
310.525 0.10000000000000142
310.838 0.20000000000000284
311.15 0.3000000000000007
311.463 0.11670000000000158
311.776 0.2834000000000003
312.089 0.20000000000000284
312.402 0.23340000000000316
312.715 0.2834000000000003
313.027 0.1667000000000023
313.34 0.26670000000000016
313.653 0.20000000000000284
313.966 0.20000000000000284
314.278 0.3667000000000016
314.591 0.25
314.904 0.25
315.217 0.26670000000000016
315.529 0.38340000000000174
315.842 0.2834000000000003
316.155 0.23340000000000316
316.467 0.20000000000000284
316.78 0.216700000000003
317.093 0.26670000000000016
317.405 0.26670000000000016
317.718 0.18340000000000245
318.031 0.25
318.343 0.216700000000003
318.656 0.216700000000003
318.969 0.20000000000000284
319.281 0.2834000000000003
319.592 0.2834000000000003
319.904 0.31670000000000087
320.217 0.23340000000000316
320.529 0.216700000000003
320.842 0.25
321.154 0.20000000000000284
321.467 0.216700000000003
321.779 0.1667000000000023
322.092 0.38340000000000174
322.404 0.23340000000000316
322.717 0.31670000000000087
323.029 0.216700000000003
323.342 0.2834000000000003
323.654 0.25
323.965 0.23340000000000316
324.277 0.23340000000000316
324.589 0.216700000000003
324.902 0.20000000000000284
325.214 0.216700000000003
325.527 0.23340000000000316
325.839 0.33340000000000103
326.151 0.3000000000000007
326.464 0.33340000000000103
326.776 0.3000000000000007
327.086 0.1667000000000023
327.399 0.18340000000000245
327.711 0.2834000000000003
328.023 0.466700000000003
328.335 0.18340000000000245
328.648 0.31670000000000087
328.96 0.38340000000000174
329.27 0.26670000000000016
329.582 0.26670000000000016
329.895 0.31670000000000087
330.207 0.3000000000000007
330.519 0.4167000000000023
330.831 0.3667000000000016
331.143 0.26670000000000016
331.454 0.25
331.766 0.3000000000000007
332.078 0.3667000000000016
332.39 0.4167000000000023
332.702 0.38340000000000174
333.014 0.31670000000000087
333.326 0.40000000000000213
333.636 0.26670000000000016
333.948 0.38340000000000174
334.261 0.3500000000000014
334.573 0.40000000000000213
334.885 0.3500000000000014
335.195 0.3500000000000014
335.507 0.33340000000000103
335.819 0.25
336.131 0.3667000000000016
336.443 0.43340000000000245
336.753 0.26670000000000016
337.065 0.2834000000000003
337.377 0.33340000000000103
337.689 0.38340000000000174
338.001 0.2834000000000003
338.31 0.25
338.622 0.31670000000000087
338.934 0.2834000000000003
339.246 0.20000000000000284
339.558 0.3667000000000016
339.868 0.23340000000000316
340.18 0.20000000000000284
340.492 0.40000000000000213
340.804 0.23340000000000316
341.113 0.2834000000000003
341.425 0.3000000000000007
341.737 0.25
342.049 0.23340000000000316
342.361 0.2834000000000003
342.67 0.3000000000000007
342.982 0.216700000000003
343.294 0.31670000000000087
343.606 0.26670000000000016
343.915 0.33340000000000103
344.227 0.33340000000000103
344.539 0.31670000000000087
344.849 0.3000000000000007
345.16 0.3667000000000016
345.472 0.38340000000000174
345.784 0.4167000000000023
346.093 0.26670000000000016
346.405 0.40000000000000213
346.717 0.3000000000000007
347.028 0.3667000000000016
347.338 0.33340000000000103
347.649 0.40000000000000213
347.961 0.40000000000000213
348.271 0.31670000000000087
348.582 0.3000000000000007
348.894 0.33340000000000103
349.205 0.3000000000000007
349.515 0.3500000000000014
349.826 0.3000000000000007
350.138 0.40000000000000213
350.447 0.5167000000000002
350.759 0.33340000000000103
351.07 0.3000000000000007
351.38 0.3500000000000014
351.691 0.20000000000000284
352.003 0.43340000000000245
352.312 0.1667000000000023
352.624 0.25
352.935 0.31670000000000087
353.245 0.2834000000000003
353.556 0.4167000000000023
353.867 0.26670000000000016
354.177 0.3667000000000016
354.488 0.3000000000000007
354.799 0.25
355.109 0.40000000000000213
355.42 0.33340000000000103
355.732 0.2834000000000003
356.041 0.26670000000000016
356.352 0.31670000000000087
356.663 0.23340000000000316
356.973 0.2834000000000003
357.284 0.4167000000000023
357.593 0.25
357.905 0.3667000000000016
358.216 0.3500000000000014
358.525 0.2834000000000003
358.836 0.31670000000000087
359.147 0.20000000000000284
359.457 0.4167000000000023
359.768 0.26670000000000016
360.077 0.3500000000000014
360.388 0.3000000000000007
360.699 0.25
361.008 0.23340000000000316
361.32 0.25
361.629 0.25
361.94 0.31670000000000087
362.251 0.4167000000000023
362.56 0.33340000000000103
362.871 0.3500000000000014
363.18 0.2834000000000003
363.491 0.5500000000000007
363.8 0.25
364.111 0.3667000000000016
364.422 0.26670000000000016
364.731 0.4167000000000023
365.042 0.23340000000000316
365.351 0.20000000000000284
365.662 0.31670000000000087
365.971 0.26670000000000016
366.282 0.31670000000000087
366.593 0.31670000000000087
366.902 0.2834000000000003
367.213 0.25
367.522 0.23340000000000316
367.833 0.26670000000000016
368.142 0.25
368.453 0.3500000000000014
368.762 0.216700000000003
369.073 0.31670000000000087
369.381 0.26670000000000016
369.692 0.26670000000000016
370.001 0.3500000000000014
370.312 0.26670000000000016
370.623 0.25
370.932 0.26670000000000016
371.242 0.3500000000000014
371.551 0.2834000000000003
371.862 0.31670000000000087
372.171 0.2834000000000003
372.482 0.33340000000000103
372.79 0.3500000000000014
373.101 0.25
373.41 0.2834000000000003
373.721 0.31670000000000087
374.029 0.26670000000000016
374.34 0.3667000000000016
374.649 0.33340000000000103
374.959 0.3667000000000016
375.268 0.25
375.577 0.2834000000000003
375.887 0.216700000000003
376.196 0.3667000000000016
376.506 0.25
376.815 0.40000000000000213
377.126 0.3500000000000014
377.434 0.3667000000000016
377.745 0.23340000000000316
378.053 0.2834000000000003
378.364 0.3000000000000007
378.672 0.3500000000000014
378.983 0.3000000000000007
379.292 0.40000000000000213
379.6 0.40000000000000213
379.911 0.26670000000000016
380.219 0.3000000000000007
380.53 0.2834000000000003
380.838 0.48340000000000316
381.148 0.25
381.457 0.31670000000000087
381.767 0.31670000000000087
382.076 0.3500000000000014
382.384 0.40000000000000213
382.695 0.40000000000000213
383.003 0.216700000000003
383.313 0.48340000000000316
383.622 0.45000000000000284
383.93 0.25
384.24 0.3667000000000016
384.549 0.18340000000000245
384.859 0.3000000000000007
385.167 0.20000000000000284
385.476 0.2834000000000003
385.786 0.38340000000000174
386.094 0.26670000000000016
386.405 0.33340000000000103
386.713 0.23340000000000316
387.021 0.26670000000000016
387.331 0.3000000000000007
387.64 0.40000000000000213
387.948 0.26670000000000016
388.258 0.33340000000000103
388.566 0.20000000000000284
388.877 0.23340000000000316
389.185 0.25
389.493 0.31670000000000087
389.803 0.33340000000000103
390.111 0.26670000000000016
390.419 0.3500000000000014
390.729 0.33340000000000103
391.038 0.38340000000000174
391.346 0.3667000000000016
391.656 0.40000000000000213
391.964 0.31670000000000087
392.272 0.3000000000000007
392.582 0.3500000000000014
392.89 0.2834000000000003
393.198 0.3667000000000016
393.508 0.43340000000000245
393.816 0.38340000000000174
394.124 0.23340000000000316
394.434 0.23340000000000316
394.742 0.40000000000000213
395.05 0.31670000000000087
395.36 0.40000000000000213
395.668 0.4167000000000023
395.976 0.33340000000000103
396.286 0.33340000000000103
396.594 0.45000000000000284
396.902 0.38340000000000174
397.21 0.45000000000000284
397.52 0.216700000000003
397.828 0.2834000000000003
398.135 0.33340000000000103
398.445 0.31670000000000087
398.753 0.33340000000000103
399.061 0.33340000000000103
399.369 0.31670000000000087
399.679 0.20000000000000284
399.987 0.20000000000000284
400.294 0.43340000000000245
400.604 0.3000000000000007
400.912 0.2834000000000003
401.22 0.25
401.527 0.31670000000000087
401.837 0.466700000000003
402.145 0.31670000000000087
402.453 0.31670000000000087
402.76 0.33340000000000103
403.07 0.4167000000000023
403.378 0.3500000000000014
403.686 0.3667000000000016
403.993 0.3000000000000007
404.303 0.33340000000000103
404.611 0.33340000000000103
404.918 0.3000000000000007
405.226 0.26670000000000016
405.533 0.45000000000000284
405.843 0.25
406.151 0.38340000000000174
406.458 0.3500000000000014
406.766 0.33340000000000103
407.076 0.4167000000000023
407.383 0.3000000000000007
407.691 0.33340000000000103
407.998 0.4167000000000023
408.306 0.466700000000003
408.615 0.33340000000000103
408.923 0.31670000000000087
409.23 0.3667000000000016
409.538 0.4167000000000023
409.845 0.38340000000000174
410.153 0.4167000000000023
410.462 0.40000000000000213
410.77 0.40000000000000213
411.077 0.40000000000000213
411.384 0.5334000000000003
411.692 0.5334000000000003
412.001 0.3500000000000014
412.309 0.43340000000000245
412.616 0.4167000000000023
412.923 0.48340000000000316
413.231 0.48340000000000316
413.538 0.5
413.845 0.583400000000001
414.155 0.5
414.462 0.45000000000000284
414.769 0.6834000000000024
415.077 0.5334000000000003
415.384 0.6167000000000016
415.691 0.5
415.999 0.5334000000000003
416.308 0.8167000000000009
416.615 0.583400000000001
416.922 0.716700000000003
417.23 0.5500000000000007
417.537 0.583400000000001
417.844 0.7334000000000032
418.151 0.6334000000000017
418.458 0.8500000000000014
418.768 0.8667000000000016
419.075 0.9000000000000021
419.382 0.8000000000000007
419.689 1.083400000000001
419.996 0.9334000000000024
420.303 0.9834000000000032
420.61 1.0500000000000007
420.918 0.8167000000000009
421.225 0.8167000000000009
421.532 1.1000000000000014
421.841 1.1834000000000024
422.148 1.25
422.455 1.0334000000000003
422.762 1.2667000000000002
423.069 1.2334000000000032
423.376 1.2334000000000032
423.683 1.2334000000000032
423.99 1.333400000000001
424.297 1.2000000000000028
424.604 1.3500000000000014
424.911 1.1834000000000024
425.218 1.1834000000000024
425.525 1.3000000000000007
425.832 1.3500000000000014
426.139 1.3000000000000007
426.446 1.2667000000000002
426.753 1.1334000000000017
427.061 1.216700000000003
427.368 1.0167000000000002
427.675 1.1334000000000017
427.982 1.1334000000000017
428.289 0.9500000000000028
428.596 0.9500000000000028
428.903 0.9500000000000028
429.209 0.9500000000000028
429.516 1.083400000000001
429.823 0.9000000000000021
430.13 0.7667000000000002
430.437 0.7667000000000002
430.743 0.9000000000000021
431.05 0.8667000000000016
431.357 0.7334000000000032
431.664 0.7334000000000032
431.97 0.7667000000000002
432.277 0.7667000000000002
432.584 0.6167000000000016
432.891 0.833400000000001
433.197 0.6667000000000023
433.504 0.716700000000003
433.811 0.5667000000000009
434.117 0.6500000000000021
434.424 0.5500000000000007
434.731 0.6000000000000014
435.037 0.6334000000000017
435.344 0.5667000000000009
435.65 0.5667000000000009
435.957 0.6834000000000024
436.262 0.6334000000000017
436.568 0.45000000000000284
436.875 0.5334000000000003
437.181 0.45000000000000284
437.488 0.40000000000000213
437.794 0.43340000000000245
438.101 0.48340000000000316
438.407 0.4167000000000023
438.714 0.7334000000000032
439.02 0.45000000000000284
439.327 0.3667000000000016
439.633 0.5167000000000002
439.94 0.4167000000000023
440.246 0.38340000000000174
440.553 0.5334000000000003
440.859 0.466700000000003
441.163 0.583400000000001
441.47 0.3667000000000016
441.776 0.5167000000000002
442.083 0.3500000000000014
442.389 0.6167000000000016
442.695 0.5
443.002 0.466700000000003
443.308 0.45000000000000284
443.614 0.40000000000000213
443.921 0.5167000000000002
444.225 0.5334000000000003
444.531 0.466700000000003
444.838 0.5167000000000002
445.144 0.466700000000003
445.45 0.43340000000000245
445.757 0.40000000000000213
446.063 0.4167000000000023
446.369 0.5334000000000003
446.675 0.583400000000001
446.979 0.33340000000000103
447.286 0.466700000000003
447.592 0.40000000000000213
447.898 0.40000000000000213
448.204 0.48340000000000316
448.51 0.31670000000000087
448.817 0.4167000000000023
449.121 0.466700000000003
449.427 0.45000000000000284
449.733 0.5500000000000007
450.039 0.3500000000000014
450.345 0.6000000000000014
450.651 0.3500000000000014
450.955 0.45000000000000284
451.261 0.45000000000000284
451.568 0.43340000000000245
451.874 0.5667000000000009
452.18 0.38340000000000174
452.486 0.45000000000000284
452.79 0.38340000000000174
453.096 0.33340000000000103
453.402 0.3667000000000016
453.708 0.6167000000000016
454.014 0.4167000000000023
454.318 0.43340000000000245
454.624 0.583400000000001
454.93 0.5667000000000009
455.236 0.48340000000000316
455.541 0.5667000000000009
455.845 0.43340000000000245
456.151 0.48340000000000316
456.457 0.40000000000000213
456.763 0.3667000000000016
457.067 0.3667000000000016
457.373 0.33340000000000103
457.679 0.466700000000003
457.985 0.4167000000000023
458.29 0.2834000000000003
458.594 0.38340000000000174
458.9 0.43340000000000245
459.206 0.216700000000003
459.512 0.5
459.815 0.38340000000000174
460.121 0.33340000000000103
460.427 0.466700000000003
460.733 0.40000000000000213
461.036 0.43340000000000245
461.342 0.43340000000000245
461.648 0.2834000000000003
461.954 0.3000000000000007
462.257 0.4167000000000023
462.563 0.40000000000000213
462.869 0.3000000000000007
463.172 0.48340000000000316
463.478 0.38340000000000174
463.784 0.43340000000000245
464.089 0.33340000000000103
464.393 0.3500000000000014
464.699 0.33340000000000103
465.004 0.33340000000000103
465.308 0.38340000000000174
465.613 0.466700000000003
465.919 0.6000000000000014
466.225 0.38340000000000174
466.528 0.43340000000000245
466.834 0.3500000000000014
467.139 0.3000000000000007
467.443 0.3667000000000016
467.748 0.43340000000000245
468.054 0.43340000000000245
468.357 0.40000000000000213
468.663 0.3667000000000016
468.968 0.38340000000000174
469.272 0.33340000000000103
469.577 0.38340000000000174
469.883 0.31670000000000087
470.186 0.5334000000000003
470.492 0.40000000000000213
470.797 0.3500000000000014
471.1 0.5
471.406 0.48340000000000316
471.711 0.43340000000000245
472.014 0.466700000000003
472.32 0.48340000000000316
472.625 0.4167000000000023
472.929 0.5334000000000003
473.234 0.3500000000000014
473.539 0.3500000000000014
473.843 0.5
474.148 0.31670000000000087
474.451 0.38340000000000174
474.756 0.583400000000001
475.062 0.5167000000000002
475.365 0.5667000000000009
475.67 0.45000000000000284
475.973 0.48340000000000316
476.279 0.43340000000000245
476.584 0.5334000000000003
476.887 0.6500000000000021
477.192 0.7000000000000028
477.498 0.716700000000003
477.801 0.8000000000000007
478.106 0.8167000000000009
478.409 0.75
478.714 0.7834000000000003
479.017 0.8500000000000014
479.322 0.7834000000000003
479.628 0.8167000000000009
479.931 0.8667000000000016
480.236 0.6667000000000023
480.539 0.8000000000000007
480.844 0.9834000000000032
481.147 0.716700000000003
481.452 0.9500000000000028
481.757 0.7334000000000032
482.06 0.8500000000000014
482.365 0.8667000000000016
482.668 0.833400000000001
482.973 0.8000000000000007
483.276 0.8834000000000017
483.581 0.75
483.884 0.8000000000000007
484.189 0.7000000000000028
484.494 0.716700000000003
484.797 0.5500000000000007
485.102 0.5167000000000002
485.405 0.4167000000000023
485.71 0.466700000000003
486.013 0.40000000000000213
486.318 0.38340000000000174
486.621 0.4167000000000023
486.925 0.40000000000000213
487.228 0.5500000000000007
487.533 0.40000000000000213
487.836 0.45000000000000284
488.141 0.5334000000000003
488.444 0.2834000000000003
488.748 0.5
489.051 0.43340000000000245
489.356 0.3500000000000014
489.659 0.48340000000000316
489.964 0.43340000000000245
490.266 0.466700000000003
490.571 0.3667000000000016
490.874 0.38340000000000174
491.179 0.45000000000000284
491.481 0.45000000000000284
491.786 0.3667000000000016
492.089 0.31670000000000087
492.393 0.45000000000000284
492.696 0.33340000000000103
493.001 0.43340000000000245
493.303 0.33340000000000103
493.606 0.2834000000000003
493.911 0.38340000000000174
494.213 0.33340000000000103
494.518 0.3500000000000014
494.821 0.3000000000000007
495.125 0.33340000000000103
495.428 0.33340000000000103
495.732 0.33340000000000103
496.035 0.38340000000000174
496.337 0.33340000000000103
496.642 0.3000000000000007
496.945 0.23340000000000316
497.249 0.3000000000000007
497.552 0.25
497.856 0.38340000000000174
498.159 0.43340000000000245
498.461 0.31670000000000087
498.766 0.45000000000000284
499.068 0.38340000000000174
499.372 0.38340000000000174
499.675 0.3667000000000016
499.977 0.5167000000000002
500.282 0.4167000000000023
500.584 0.3667000000000016
500.889 0.33340000000000103
501.191 0.33340000000000103
501.493 0.31670000000000087
501.798 0.4167000000000023
502.1 0.43340000000000245
502.402 0.33340000000000103
502.707 0.31670000000000087
503.009 0.40000000000000213
503.314 0.43340000000000245
503.616 0.2834000000000003
503.918 0.38340000000000174
504.222 0.45000000000000284
504.525 0.3500000000000014
504.827 0.33340000000000103
505.131 0.26670000000000016
505.433 0.3667000000000016
505.736 0.25
506.04 0.38340000000000174
506.342 0.3667000000000016
506.646 0.33340000000000103
506.949 0.33340000000000103
507.251 0.23340000000000316
507.555 0.2834000000000003
507.857 0.26670000000000016
508.159 0.31670000000000087
508.461 0.26670000000000016
508.766 0.3667000000000016
509.068 0.466700000000003
509.37 0.38340000000000174
509.674 0.43340000000000245
509.976 0.3500000000000014
510.278 0.48340000000000316
510.582 0.33340000000000103
510.884 0.26670000000000016
511.186 0.40000000000000213
511.49 0.1667000000000023
511.792 0.26670000000000016
512.094 0.3000000000000007
512.396 0.33340000000000103
512.701 0.5
513.003 0.40000000000000213
513.305 0.23340000000000316
513.609 0.33340000000000103
513.91 0.45000000000000284
514.212 0.4167000000000023
514.514 0.3500000000000014
514.818 0.4167000000000023
515.12 0.26670000000000016
515.422 0.3000000000000007
515.724 0.6000000000000014
516.028 0.466700000000003
516.33 0.40000000000000213
516.632 0.4167000000000023
516.934 0.43340000000000245
517.237 0.2834000000000003
517.539 0.43340000000000245
517.841 0.3500000000000014
518.143 0.2834000000000003
518.447 0.3000000000000007
518.749 0.3667000000000016
519.05 0.3000000000000007
519.352 0.31670000000000087
519.656 0.33340000000000103
519.958 0.38340000000000174
520.26 0.3500000000000014
520.561 0.40000000000000213
520.863 0.3500000000000014
521.167 0.3500000000000014
521.468 0.20000000000000284
521.77 0.5500000000000007
522.072 0.3000000000000007
522.376 0.5167000000000002
522.677 0.40000000000000213
522.979 0.31670000000000087
523.281 0.4167000000000023
523.582 0.4167000000000023
523.884 0.3667000000000016
524.187 0.33340000000000103
524.489 0.2834000000000003
524.791 0.45000000000000284
525.092 0.38340000000000174
525.394 0.43340000000000245
525.697 0.38340000000000174
525.999 0.466700000000003
526.301 0.38340000000000174
526.602 0.45000000000000284
526.904 0.33340000000000103
527.205 0.3500000000000014
527.507 0.4167000000000023
527.81 0.4167000000000023
528.112 0.3500000000000014
528.413 0.43340000000000245
528.715 0.33340000000000103
529.016 0.48340000000000316
529.318 0.33340000000000103
529.619 0.3500000000000014
529.922 0.31670000000000087
530.224 0.3667000000000016
530.525 0.4167000000000023
530.827 0.38340000000000174
531.128 0.33340000000000103
531.429 0.31670000000000087
531.731 0.2834000000000003
532.032 0.43340000000000245
532.336 0.48340000000000316
532.637 0.43340000000000245
532.938 0.38340000000000174
533.24 0.26670000000000016
533.541 0.26670000000000016
533.842 0.4167000000000023
534.143 0.216700000000003
534.445 0.3000000000000007
534.746 0.45000000000000284
535.047 0.45000000000000284
535.351 0.3000000000000007
535.652 0.23340000000000316
535.953 0.43340000000000245
536.254 0.4167000000000023
536.555 0.216700000000003
536.857 0.45000000000000284
537.158 0.466700000000003
537.459 0.38340000000000174
537.76 0.3500000000000014
538.061 0.3667000000000016
538.362 0.38340000000000174
538.664 0.33340000000000103
538.965 0.43340000000000245
539.266 0.3000000000000007
539.567 0.40000000000000213
539.868 0.5334000000000003
540.169 0.3500000000000014
540.472 0.33340000000000103
540.773 0.3000000000000007
541.074 0.48340000000000316
541.375 0.33340000000000103
541.677 0.48340000000000316
541.978 0.5
542.279 0.43340000000000245
542.58 0.2834000000000003
542.881 0.33340000000000103
543.182 0.40000000000000213
543.483 0.26670000000000016
543.784 0.33340000000000103
544.085 0.45000000000000284
544.385 0.40000000000000213
544.686 0.466700000000003
544.987 0.5167000000000002
545.288 0.3667000000000016
545.589 0.4167000000000023
545.89 0.43340000000000245
546.191 0.33340000000000103
546.492 0.43340000000000245
546.793 0.40000000000000213
547.094 0.466700000000003
547.394 0.3000000000000007
547.695 0.43340000000000245
547.996 0.466700000000003
548.297 0.3000000000000007
548.596 0.466700000000003
548.897 0.5
549.197 0.40000000000000213
549.498 0.3500000000000014
549.799 0.5167000000000002
550.1 0.5500000000000007
550.4 0.40000000000000213
550.701 0.38340000000000174
551.002 0.5
551.303 0.40000000000000213
551.603 0.6167000000000016
551.904 0.48340000000000316
552.205 0.5
552.505 0.6667000000000023
552.806 0.5334000000000003
553.107 0.5167000000000002
553.407 0.5334000000000003
553.706 0.5167000000000002
554.007 0.5167000000000002
554.307 0.40000000000000213
554.608 0.583400000000001
554.909 0.5167000000000002
555.209 0.4167000000000023
555.51 0.5500000000000007
555.81 0.6500000000000021
556.111 0.6834000000000024
556.411 0.6167000000000016
556.71 0.6000000000000014
557.01 0.5334000000000003
557.311 0.5667000000000009
557.612 0.6000000000000014
557.912 0.6000000000000014
558.213 0.6834000000000024
558.513 0.45000000000000284
558.813 0.6000000000000014
559.112 0.6334000000000017
559.412 0.48340000000000316
559.713 0.5500000000000007
560.013 0.40000000000000213
560.314 0.5667000000000009
560.614 0.4167000000000023
560.914 0.40000000000000213
561.213 0.6167000000000016
561.513 0.466700000000003
561.814 0.466700000000003
562.114 0.6000000000000014
562.414 0.3667000000000016
562.715 0.6167000000000016
563.015 0.5167000000000002
563.313 0.5
563.614 0.5500000000000007
563.914 0.43340000000000245
564.214 0.5
564.515 0.583400000000001
564.813 0.38340000000000174
565.113 0.40000000000000213
565.413 0.4167000000000023
565.714 0.43340000000000245
566.014 0.3500000000000014
566.312 0.5
566.612 0.4167000000000023
566.912 0.45000000000000284
567.213 0.5167000000000002
567.513 0.31670000000000087
567.811 0.5
568.111 0.2834000000000003
568.411 0.38340000000000174
568.712 0.43340000000000245
569.012 0.4167000000000023
569.31 0.3500000000000014
569.61 0.40000000000000213
569.91 0.3500000000000014
570.21 0.5
570.508 0.3000000000000007
570.808 0.3500000000000014
571.108 0.5
571.408 0.3500000000000014
571.706 0.3667000000000016
572.006 0.3000000000000007
572.306 0.45000000000000284
572.607 0.45000000000000284
572.904 0.3500000000000014
573.204 0.33340000000000103
573.505 0.3667000000000016
573.805 0.31670000000000087
574.102 0.43340000000000245
574.402 0.33340000000000103
574.702 0.3667000000000016
575.002 0.31670000000000087
575.3 0.3667000000000016
575.6 0.45000000000000284
575.9 0.31670000000000087
576.198 0.43340000000000245
576.498 0.38340000000000174
576.798 0.45000000000000284
577.098 0.40000000000000213
577.395 0.33340000000000103
577.695 0.43340000000000245
577.995 0.45000000000000284
578.293 0.25
578.593 0.38340000000000174
578.893 0.25
579.19 0.45000000000000284
579.49 0.3500000000000014
579.79 0.38340000000000174
580.088 0.33340000000000103
580.387 0.31670000000000087
580.687 0.466700000000003
580.985 0.33340000000000103
581.285 0.33340000000000103
581.584 0.31670000000000087
581.882 0.466700000000003
582.182 0.43340000000000245
582.482 0.40000000000000213
582.779 0.5500000000000007
583.079 0.31670000000000087
583.378 0.40000000000000213
583.676 0.3500000000000014
583.976 0.466700000000003
584.275 0.38340000000000174
584.573 0.3000000000000007
584.873 0.38340000000000174
585.17 0.38340000000000174
585.47 0.3667000000000016
585.769 0.48340000000000316
586.067 0.4167000000000023
586.367 0.45000000000000284
586.666 0.4167000000000023
586.964 0.3667000000000016
587.263 0.33340000000000103
587.561 0.48340000000000316
587.86 0.43340000000000245
588.16 0.48340000000000316
588.457 0.38340000000000174
588.757 0.3667000000000016
589.054 0.4167000000000023
589.354 0.38340000000000174
589.653 0.3667000000000016
589.951 0.3500000000000014
590.25 0.4167000000000023
590.547 0.43340000000000245
590.847 0.38340000000000174
591.144 0.3000000000000007
591.444 0.33340000000000103
591.743 0.4167000000000023
592.04 0.38340000000000174
592.34 0.43340000000000245
592.637 0.33340000000000103
592.936 0.466700000000003
593.234 0.3667000000000016
593.533 0.38340000000000174
593.832 0.38340000000000174
594.13 0.33340000000000103
594.429 0.38340000000000174
594.726 0.40000000000000213
595.026 0.45000000000000284
595.323 0.3667000000000016
595.622 0.3667000000000016
595.919 0.40000000000000213
596.219 0.3500000000000014
596.516 0.2834000000000003
596.815 0.3000000000000007
597.112 0.38340000000000174
597.411 0.43340000000000245
597.709 0.2834000000000003
598.008 0.2834000000000003
598.305 0.45000000000000284
598.604 0.3667000000000016
598.901 0.48340000000000316
599.2 0.45000000000000284
599.497 0.40000000000000213
599.797 0.2834000000000003
600.094 0.33340000000000103
600.393 0.45000000000000284
600.69 0.466700000000003
600.989 0.40000000000000213
601.286 0.3000000000000007
601.585 0.38340000000000174
601.882 0.3500000000000014
602.181 0.31670000000000087
602.478 0.40000000000000213
602.777 0.33340000000000103
603.074 0.43340000000000245
603.373 0.38340000000000174
603.67 0.38340000000000174
603.969 0.25
604.266 0.3500000000000014
604.563 0.40000000000000213
604.862 0.48340000000000316
605.159 0.48340000000000316
605.458 0.3000000000000007
605.755 0.4167000000000023
606.054 0.48340000000000316
606.351 0.48340000000000316
606.65 0.3667000000000016
606.946 0.5334000000000003
607.243 0.5334000000000003
607.542 0.40000000000000213
607.839 0.43340000000000245
608.138 0.43340000000000245
608.435 0.5167000000000002
608.732 0.48340000000000316
609.03 0.5167000000000002
609.327 0.4167000000000023
609.626 0.40000000000000213
609.923 0.3500000000000014
610.22 0.6000000000000014
610.518 0.466700000000003
610.815 0.45000000000000284
611.114 0.45000000000000284
611.411 0.583400000000001
611.707 0.4167000000000023
612.006 0.6500000000000021
612.303 0.48340000000000316
612.601 0.6500000000000021
612.898 0.5500000000000007
613.195 0.583400000000001
613.493 0.43340000000000245
613.79 0.6167000000000016
614.087 0.5334000000000003
614.385 0.5667000000000009
614.682 0.5334000000000003
614.979 0.5334000000000003
615.277 0.5
615.574 0.5167000000000002
615.87 0.6000000000000014
616.169 0.45000000000000284
616.466 0.5
616.764 0.5
617.061 0.43340000000000245
617.357 0.4167000000000023
617.656 0.4167000000000023
617.952 0.466700000000003
618.249 0.45000000000000284
618.545 0.48340000000000316
618.844 0.40000000000000213
619.14 0.31670000000000087
619.437 0.3500000000000014
619.735 0.4167000000000023
620.032 0.466700000000003
620.328 0.5500000000000007
620.626 0.43340000000000245
620.923 0.45000000000000284
621.219 0.31670000000000087
621.518 0.466700000000003
621.814 0.33340000000000103
622.11 0.26670000000000016
622.407 0.5167000000000002
622.705 0.48340000000000316
623.002 0.38340000000000174
623.298 0.3500000000000014
623.594 0.5
623.893 0.45000000000000284
624.189 0.466700000000003
624.485 0.3000000000000007
624.784 0.3500000000000014
625.08 0.43340000000000245
625.376 0.33340000000000103
625.672 0.25
625.971 0.31670000000000087
626.267 0.4167000000000023
626.563 0.48340000000000316
626.859 0.33340000000000103
627.158 0.26670000000000016
627.454 0.15000000000000213
627.75 0.43340000000000245
628.046 0.3000000000000007
628.342 0.5500000000000007
628.641 0.3500000000000014
628.937 0.31670000000000087
629.233 0.3667000000000016
629.529 0.40000000000000213
629.827 0.3667000000000016
630.123 0.31670000000000087
630.419 0.2834000000000003
630.715 0.26670000000000016
631.011 0.4167000000000023
631.31 0.3000000000000007
631.606 0.43340000000000245
631.902 0.3500000000000014
632.198 0.3667000000000016
632.494 0.3667000000000016
632.792 0.3000000000000007
633.088 0.33340000000000103
633.384 0.3000000000000007
633.68 0.4167000000000023
633.976 0.3500000000000014
634.272 0.33340000000000103
634.57 0.466700000000003
634.866 0.4167000000000023
635.162 0.40000000000000213
635.458 0.40000000000000213
635.754 0.33340000000000103
636.05 0.40000000000000213
636.347 0.3500000000000014
636.643 0.3667000000000016
636.939 0.3000000000000007
637.235 0.4167000000000023
637.531 0.3667000000000016
637.827 0.43340000000000245
638.123 0.5334000000000003
638.421 0.40000000000000213
638.716 0.466700000000003
639.012 0.48340000000000316
639.308 0.5334000000000003
639.604 0.45000000000000284
639.9 0.31670000000000087
640.195 0.45000000000000284
640.491 0.43340000000000245
640.789 0.4167000000000023
641.085 0.4167000000000023
641.381 0.3000000000000007
641.676 0.3667000000000016
641.972 0.4167000000000023
642.268 0.5
642.563 0.40000000000000213
642.859 0.33340000000000103
643.155 0.3000000000000007
643.451 0.43340000000000245
643.746 0.466700000000003
644.044 0.45000000000000284
644.34 0.5
644.635 0.43340000000000245
644.931 0.48340000000000316
645.227 0.43340000000000245
645.522 0.3000000000000007
645.818 0.40000000000000213
646.113 0.2834000000000003
646.409 0.2834000000000003
646.704 0.3500000000000014
647.0 0.5167000000000002
647.296 0.3000000000000007
647.591 0.5
647.887 0.3667000000000016
648.182 0.5167000000000002
648.478 0.38340000000000174
648.773 0.31670000000000087
649.069 0.5500000000000007
649.366 0.3500000000000014
649.662 0.45000000000000284
649.957 0.4167000000000023
650.253 0.4167000000000023
650.548 0.43340000000000245
650.844 0.3000000000000007
651.139 0.5667000000000009
651.434 0.466700000000003
651.73 0.6167000000000016
652.025 0.3000000000000007
652.321 0.5
652.616 0.4167000000000023
652.911 0.3667000000000016
653.207 0.38340000000000174
653.502 0.45000000000000284
653.797 0.31670000000000087
654.093 0.5167000000000002
654.388 0.40000000000000213
654.683 0.3500000000000014
654.979 0.4167000000000023
655.274 0.5167000000000002
655.567 0.43340000000000245
655.863 0.5334000000000003
656.158 0.5334000000000003
656.453 0.5
656.748 0.6834000000000024
657.044 0.6000000000000014
657.339 0.716700000000003
657.634 0.5500000000000007
657.929 0.5667000000000009
658.224 0.6834000000000024
658.52 0.8000000000000007
658.815 0.583400000000001
659.11 0.6834000000000024
659.405 0.716700000000003
659.7 0.716700000000003
659.995 0.6000000000000014
660.291 0.6000000000000014
660.586 0.7334000000000032
660.879 0.6667000000000023
661.174 0.6334000000000017
661.469 0.7667000000000002
661.764 0.716700000000003
662.059 0.7334000000000032
662.354 0.5167000000000002
662.649 0.6667000000000023
662.944 0.716700000000003
663.239 0.583400000000001
663.534 0.5334000000000003
663.83 0.6334000000000017
664.122 0.5667000000000009
664.417 0.5500000000000007
664.713 0.583400000000001
665.008 0.75
665.302 0.716700000000003
665.597 0.6834000000000024
665.892 0.6500000000000021
666.187 0.466700000000003
666.48 0.5500000000000007
666.775 0.38340000000000174
667.07 0.5500000000000007
667.365 0.6834000000000024
667.66 0.5500000000000007
667.955 0.6667000000000023
668.25 0.40000000000000213
668.542 0.48340000000000316
668.837 0.4167000000000023
669.132 0.43340000000000245
669.427 0.6167000000000016
669.722 0.40000000000000213
670.017 0.4167000000000023
670.31 0.5
670.604 0.48340000000000316
670.899 0.5667000000000009
671.194 0.48340000000000316
671.489 0.45000000000000284
671.783 0.5
672.076 0.3667000000000016
672.371 0.4167000000000023
672.666 0.4167000000000023
672.96 0.5
673.255 0.48340000000000316
673.548 0.45000000000000284
673.842 0.3667000000000016
674.137 0.40000000000000213
674.432 0.45000000000000284
674.727 0.45000000000000284
675.019 0.31670000000000087
675.314 0.43340000000000245
675.608 0.38340000000000174
675.903 0.45000000000000284
676.196 0.48340000000000316
676.49 0.3667000000000016
676.785 0.43340000000000245
677.079 0.2834000000000003
677.374 0.43340000000000245
677.667 0.2834000000000003
677.961 0.38340000000000174
678.256 0.33340000000000103
678.55 0.48340000000000316
678.843 0.40000000000000213
679.137 0.5334000000000003
679.432 0.3667000000000016
679.726 0.48340000000000316
680.019 0.216700000000003
680.313 0.31670000000000087
680.608 0.33340000000000103
680.902 0.4167000000000023
681.195 0.3667000000000016
681.489 0.3667000000000016
681.784 0.5167000000000002
682.076 0.5500000000000007
682.37 0.40000000000000213
682.665 0.3500000000000014
682.959 0.466700000000003
683.252 0.43340000000000245
683.546 0.43340000000000245
683.84 0.466700000000003
684.133 0.466700000000003
684.427 0.2834000000000003
684.721 0.33340000000000103
685.014 0.33340000000000103
685.308 0.4167000000000023
685.602 0.38340000000000174
685.895 0.3667000000000016
686.189 0.3667000000000016
686.483 0.40000000000000213
686.778 0.3500000000000014
687.07 0.33340000000000103
687.364 0.33340000000000103
687.658 0.3667000000000016
687.951 0.4167000000000023
688.245 0.43340000000000245
688.537 0.40000000000000213
688.831 0.466700000000003
689.125 0.26670000000000016
689.418 0.3500000000000014
689.712 0.5167000000000002
690.006 0.38340000000000174
690.298 0.38340000000000174
690.592 0.3500000000000014
690.886 0.40000000000000213
691.178 0.31670000000000087
691.473 0.40000000000000213
691.767 0.31670000000000087
692.059 0.4167000000000023
692.353 0.38340000000000174
692.645 0.45000000000000284
692.939 0.26670000000000016
693.233 0.3667000000000016
693.525 0.43340000000000245
693.819 0.4167000000000023
694.111 0.33340000000000103
694.405 0.4167000000000023
694.699 0.3000000000000007
694.991 0.3500000000000014
695.285 0.3667000000000016
695.577 0.31670000000000087
695.871 0.4167000000000023
696.165 0.4167000000000023
696.457 0.43340000000000245
696.751 0.2834000000000003
697.043 0.3500000000000014
697.337 0.31670000000000087
697.629 0.3000000000000007
697.923 0.3667000000000016
698.217 0.40000000000000213
698.509 0.31670000000000087
698.802 0.4167000000000023
699.094 0.4167000000000023
699.388 0.3500000000000014
699.68 0.40000000000000213
699.974 0.43340000000000245
700.266 0.3667000000000016
700.56 0.3667000000000016
700.853 0.466700000000003
701.145 0.38340000000000174
701.439 0.40000000000000213
701.731 0.216700000000003
702.025 0.3000000000000007
702.316 0.2834000000000003
702.61 0.33340000000000103
702.902 0.3500000000000014
703.196 0.40000000000000213
703.487 0.40000000000000213
703.781 0.33340000000000103
704.073 0.4167000000000023
704.367 0.2834000000000003
704.658 0.33340000000000103
704.952 0.5
705.244 0.40000000000000213
705.537 0.216700000000003
705.829 0.43340000000000245
706.122 0.40000000000000213
706.414 0.3667000000000016
706.708 0.3500000000000014
706.999 0.43340000000000245
707.293 0.466700000000003
