# Created: 2019-11-28 13:05:38.402647
# rshift intensity
76.1738 0.33330000000000126
76.4989 0.25
76.824 0.2666000000000004
77.1491 0.13330000000000197
77.4721 0.1999999999999993
77.7972 0.18329999999999913
78.1223 0.10000000000000142
78.4474 0.18329999999999913
78.7724 0.10000000000000142
79.0975 0.21659999999999968
79.4204 0.15000000000000213
79.7454 0.0666000000000011
80.0704 0.23329999999999984
80.3954 0.10000000000000142
80.7204 0.18329999999999913
81.0454 0.08330000000000126
81.3682 0.05000000000000071
81.6931 0.08330000000000126
82.0181 0.11660000000000181
82.343 0.03330000000000055
82.6679 0.18329999999999913
82.9907 0.13330000000000197
83.3156 0.13330000000000197
83.6405 0.0
83.9654 0.03330000000000055
84.2903 0.016600000000000392
84.613 0.15000000000000213
84.9378 0.18329999999999913
85.2626 0.16659999999999897
85.5875 0.0666000000000011
85.9101 0.05000000000000071
86.2349 0.10000000000000142
86.5597 0.1999999999999993
86.8845 0.23329999999999984
87.2093 0.03330000000000055
87.5319 0.15000000000000213
87.8566 0.13330000000000197
88.1814 0.16659999999999897
88.5061 0.15000000000000213
88.8286 0.18329999999999913
89.1533 0.25
89.478 0.15000000000000213
89.8027 0.03330000000000055
90.1252 0.15000000000000213
90.4499 0.15000000000000213
90.7745 0.23329999999999984
91.0992 0.1999999999999993
91.4216 0.23329999999999984
91.7462 0.11660000000000181
92.0708 0.13330000000000197
92.3954 0.15000000000000213
92.7179 0.11660000000000181
93.0424 0.05000000000000071
93.367 0.2666000000000004
93.6915 0.25
94.0139 0.16659999999999897
94.3384 0.13330000000000197
94.6629 0.2666000000000004
94.9853 0.10000000000000142
95.3098 0.10000000000000142
95.6342 0.10000000000000142
95.9587 0.15000000000000213
96.281 0.23329999999999984
96.6055 0.16659999999999897
96.9299 0.25
97.2522 0.11660000000000181
97.5766 0.11660000000000181
97.901 0.15000000000000213
98.2232 0.18329999999999913
98.5476 0.21659999999999968
98.8719 0.25
99.1942 0.13330000000000197
99.5185 0.15000000000000213
99.8428 0.08330000000000126
100.165 0.16659999999999897
100.489 0.10000000000000142
100.814 0.18329999999999913
101.136 0.23329999999999984
101.46 0.08330000000000126
101.784 0.21659999999999968
102.106 0.1999999999999993
102.431 0.25
102.755 0.23329999999999984
103.077 0.15000000000000213
103.401 0.15000000000000213
103.725 0.15000000000000213
104.047 0.15000000000000213
104.372 0.3000000000000007
104.696 0.13330000000000197
105.018 0.11660000000000181
105.342 0.16659999999999897
105.666 0.16659999999999897
105.988 0.1999999999999993
106.312 0.13330000000000197
106.634 0.1999999999999993
106.958 0.1999999999999993
107.282 0.08330000000000126
107.604 0.25
107.928 0.2666000000000004
108.252 0.13330000000000197
108.574 0.18329999999999913
108.898 0.21659999999999968
109.22 0.21659999999999968
109.544 0.18329999999999913
109.868 0.15000000000000213
110.19 0.1999999999999993
110.514 0.10000000000000142
110.836 0.1999999999999993
111.159 0.13330000000000197
111.483 0.1999999999999993
111.805 0.13330000000000197
112.129 0.28330000000000055
112.451 0.15000000000000213
112.775 0.15000000000000213
113.096 0.0666000000000011
113.42 0.10000000000000142
113.744 0.18329999999999913
114.066 0.10000000000000142
114.39 0.08330000000000126
114.711 0.11660000000000181
115.035 0.10000000000000142
115.357 0.13330000000000197
115.681 0.2666000000000004
116.004 0.11660000000000181
116.326 0.1999999999999993
116.65 0.11660000000000181
116.971 0.1999999999999993
117.295 0.16659999999999897
117.617 0.25
117.94 0.16659999999999897
118.262 0.0666000000000011
118.586 0.23329999999999984
118.907 0.25
119.231 0.11660000000000181
119.554 0.10000000000000142
119.876 0.21659999999999968
120.199 0.21659999999999968
120.521 0.16659999999999897
120.845 0.1999999999999993
121.166 0.05000000000000071
121.49 0.1999999999999993
121.811 0.11660000000000181
122.135 0.1999999999999993
122.456 0.0666000000000011
122.78 0.18329999999999913
123.101 0.11660000000000181
123.424 0.18329999999999913
123.746 0.15000000000000213
124.069 0.11660000000000181
124.391 0.3000000000000007
124.714 0.25
125.035 0.21659999999999968
125.359 0.23329999999999984
125.68 0.08330000000000126
126.004 0.23329999999999984
126.325 0.1999999999999993
126.648 0.2666000000000004
126.97 0.05000000000000071
127.291 0.16659999999999897
127.614 0.15000000000000213
127.935 0.23329999999999984
128.259 0.11660000000000181
128.58 0.1999999999999993
128.903 0.15000000000000213
129.224 0.16659999999999897
129.548 0.10000000000000142
129.869 0.1999999999999993
130.192 0.08330000000000126
130.513 0.28330000000000055
130.834 0.28330000000000055
131.158 0.11660000000000181
131.479 0.16659999999999897
131.802 0.15000000000000213
132.123 0.15000000000000213
132.446 0.21659999999999968
132.767 0.16659999999999897
133.09 0.21659999999999968
133.411 0.15000000000000213
133.733 0.08330000000000126
134.056 0.11660000000000181
134.377 0.03330000000000055
134.7 0.21659999999999968
135.021 0.23329999999999984
135.342 0.05000000000000071
135.665 0.13330000000000197
135.986 0.16659999999999897
136.309 0.1999999999999993
136.63 0.21659999999999968
136.951 0.16659999999999897
137.274 0.13330000000000197
137.595 0.1999999999999993
137.918 0.16659999999999897
138.238 0.10000000000000142
138.559 0.23329999999999984
138.882 0.05000000000000071
139.203 0.11660000000000181
139.526 0.15000000000000213
139.847 0.10000000000000142
140.168 0.25
140.491 0.13330000000000197
140.811 0.18329999999999913
141.132 0.28330000000000055
141.455 0.23329999999999984
141.776 0.18329999999999913
142.097 0.1999999999999993
142.419 0.23329999999999984
142.74 0.25
143.061 0.13330000000000197
143.384 0.23329999999999984
143.704 0.11660000000000181
144.027 0.10000000000000142
144.348 0.15000000000000213
144.668 0.1999999999999993
144.991 0.2666000000000004
145.312 0.1999999999999993
145.632 0.15000000000000213
145.955 0.21659999999999968
146.276 0.3166000000000011
146.596 0.13330000000000197
146.917 0.18329999999999913
147.24 0.25
147.56 0.13330000000000197
147.881 0.15000000000000213
148.203 0.23329999999999984
148.524 0.3166000000000011
148.844 0.15000000000000213
149.167 0.15000000000000213
149.487 0.16659999999999897
149.808 0.18329999999999913
150.131 0.18329999999999913
150.451 0.3166000000000011
150.771 0.15000000000000213
151.092 0.15000000000000213
151.414 0.10000000000000142
151.735 0.0666000000000011
152.055 0.1999999999999993
152.378 0.13330000000000197
152.698 0.21659999999999968
153.018 0.3166000000000011
153.339 0.0666000000000011
153.661 0.16659999999999897
153.982 0.13330000000000197
154.302 0.15000000000000213
154.622 0.25
154.945 0.1999999999999993
155.265 0.2666000000000004
155.585 0.1999999999999993
155.905 0.03330000000000055
156.228 0.21659999999999968
156.548 0.2666000000000004
156.868 0.15000000000000213
157.188 0.1999999999999993
157.511 0.1999999999999993
157.831 0.16659999999999897
158.151 0.08330000000000126
158.471 0.2666000000000004
158.794 0.2666000000000004
159.114 0.21659999999999968
159.434 0.21659999999999968
159.754 0.15000000000000213
160.074 0.21659999999999968
160.396 0.1999999999999993
160.717 0.13330000000000197
161.037 0.3500000000000014
161.357 0.2666000000000004
161.679 0.3666000000000018
161.999 0.23329999999999984
162.319 0.25
162.639 0.18329999999999913
162.959 0.2666000000000004
163.281 0.383300000000002
163.601 0.21659999999999968
163.921 0.33330000000000126
164.241 0.2666000000000004
164.561 0.23329999999999984
164.881 0.3666000000000018
165.203 0.28330000000000055
165.523 0.3666000000000018
165.843 0.18329999999999913
166.163 0.3500000000000014
166.483 0.2666000000000004
166.803 0.08330000000000126
167.125 0.383300000000002
167.445 0.13330000000000197
167.764 0.2666000000000004
168.084 0.23329999999999984
168.404 0.23329999999999984
168.724 0.3000000000000007
169.046 0.2666000000000004
169.366 0.16659999999999897
169.685 0.3666000000000018
170.005 0.21659999999999968
170.325 0.25
170.645 0.2666000000000004
170.964 0.25
171.286 0.15000000000000213
171.606 0.1999999999999993
171.926 0.16659999999999897
172.245 0.03330000000000055
172.565 0.3000000000000007
172.885 0.25
173.204 0.08330000000000126
173.524 0.2666000000000004
173.846 0.11660000000000181
174.166 0.18329999999999913
174.485 0.18329999999999913
174.805 0.21659999999999968
175.124 0.08330000000000126
175.444 0.16659999999999897
175.764 0.3000000000000007
176.083 0.28330000000000055
176.403 0.33330000000000126
176.722 0.33330000000000126
177.044 0.08330000000000126
177.363 0.18329999999999913
177.683 0.16659999999999897
178.002 0.18329999999999913
178.322 0.23329999999999984
178.641 0.16659999999999897
178.961 0.10000000000000142
179.28 0.2666000000000004
179.6 0.21659999999999968
179.919 0.2666000000000004
180.239 0.18329999999999913
180.558 0.1999999999999993
180.877 0.28330000000000055
181.197 0.3000000000000007
181.516 0.1999999999999993
181.838 0.25
182.157 0.25
182.476 0.16659999999999897
182.796 0.2666000000000004
183.115 0.25
183.434 0.15000000000000213
183.754 0.18329999999999913
184.073 0.16659999999999897
184.392 0.1999999999999993
184.712 0.3000000000000007
185.031 0.23329999999999984
185.35 0.3000000000000007
185.669 0.21659999999999968
185.989 0.2666000000000004
186.308 0.21659999999999968
186.627 0.3000000000000007
186.946 0.25
187.265 0.18329999999999913
187.585 0.18329999999999913
187.904 0.18329999999999913
188.223 0.16659999999999897
188.542 0.3166000000000011
188.861 0.11660000000000181
189.18 0.13330000000000197
189.499 0.1999999999999993
189.818 0.25
190.138 0.16659999999999897
190.457 0.21659999999999968
190.776 0.18329999999999913
191.095 0.2666000000000004
191.414 0.15000000000000213
191.733 0.18329999999999913
192.052 0.3666000000000018
192.371 0.15000000000000213
192.69 0.13330000000000197
193.009 0.16659999999999897
193.328 0.3166000000000011
193.647 0.21659999999999968
193.966 0.1999999999999993
194.285 0.11660000000000181
194.602 0.18329999999999913
194.92 0.28330000000000055
195.239 0.13330000000000197
195.558 0.2666000000000004
195.877 0.15000000000000213
196.196 0.23329999999999984
196.515 0.15000000000000213
196.834 0.3500000000000014
197.153 0.23329999999999984
197.471 0.18329999999999913
197.79 0.15000000000000213
198.109 0.25
198.428 0.1999999999999993
198.747 0.1999999999999993
199.065 0.23329999999999984
199.382 0.3000000000000007
199.701 0.18329999999999913
200.02 0.16659999999999897
200.338 0.11660000000000181
200.657 0.13330000000000197
200.976 0.28330000000000055
201.295 0.13330000000000197
201.613 0.21659999999999968
201.932 0.1999999999999993
202.251 0.21659999999999968
202.567 0.08330000000000126
202.886 0.383300000000002
203.204 0.3666000000000018
203.523 0.1999999999999993
203.842 0.16659999999999897
204.16 0.1999999999999993
204.479 0.11660000000000181
204.797 0.10000000000000142
205.114 0.1999999999999993
205.433 0.25
205.751 0.3166000000000011
206.07 0.2666000000000004
206.388 0.16659999999999897
206.707 0.3000000000000007
207.025 0.25
207.342 0.2666000000000004
207.66 0.18329999999999913
207.979 0.16659999999999897
208.297 0.3500000000000014
208.615 0.23329999999999984
208.934 0.3000000000000007
209.25 0.25
209.569 0.25
209.887 0.3166000000000011
210.205 0.15000000000000213
210.524 0.25
210.842 0.2666000000000004
211.158 0.383300000000002
211.477 0.25
211.795 0.18329999999999913
212.113 0.3500000000000014
212.432 0.23329999999999984
212.75 0.15000000000000213
213.066 0.11660000000000181
213.385 0.1999999999999993
213.703 0.3166000000000011
214.021 0.23329999999999984
214.339 0.1999999999999993
214.656 0.25
214.974 0.18329999999999913
215.292 0.2666000000000004
215.61 0.13330000000000197
215.926 0.25
216.245 0.3000000000000007
216.563 0.15000000000000213
216.881 0.25
217.199 0.21659999999999968
217.515 0.33330000000000126
217.833 0.1999999999999993
218.151 0.3666000000000018
218.469 0.15000000000000213
218.785 0.25
219.104 0.23329999999999984
219.422 0.16659999999999897
219.74 0.1999999999999993
220.056 0.1999999999999993
220.374 0.2666000000000004
220.692 0.3166000000000011
221.01 0.23329999999999984
221.326 0.23329999999999984
221.644 0.3500000000000014
221.962 0.25
222.28 0.3166000000000011
222.596 0.383300000000002
222.914 0.3000000000000007
223.232 0.33330000000000126
223.547 0.3166000000000011
223.865 0.3166000000000011
224.183 0.33330000000000126
224.501 0.2666000000000004
224.817 0.3000000000000007
225.135 0.3000000000000007
225.453 0.2666000000000004
225.768 0.3166000000000011
226.086 0.2666000000000004
226.404 0.40000000000000213
226.722 0.13330000000000197
227.038 0.33330000000000126
227.355 0.2666000000000004
227.673 0.28330000000000055
227.989 0.25
228.307 0.3166000000000011
228.625 0.28330000000000055
228.94 0.2666000000000004
229.258 0.28330000000000055
229.576 0.28330000000000055
229.891 0.21659999999999968
230.209 0.25
230.527 0.23329999999999984
230.842 0.25
231.16 0.25
231.478 0.25
231.793 0.1999999999999993
232.111 0.25
232.428 0.23329999999999984
232.744 0.3166000000000011
233.062 0.28330000000000055
233.379 0.28330000000000055
233.695 0.2666000000000004
234.012 0.3166000000000011
234.33 0.383300000000002
234.645 0.33330000000000126
234.963 0.23329999999999984
235.278 0.33330000000000126
235.596 0.3166000000000011
235.913 0.3666000000000018
236.229 0.28330000000000055
236.546 0.28330000000000055
236.864 0.33330000000000126
237.179 0.28330000000000055
237.497 0.40000000000000213
237.812 0.3166000000000011
238.129 0.2666000000000004
238.447 0.15000000000000213
238.762 0.16659999999999897
239.08 0.28330000000000055
239.395 0.3000000000000007
239.712 0.21659999999999968
240.03 0.41659999999999897
240.345 0.3666000000000018
240.662 0.40000000000000213
240.978 0.4499999999999993
241.295 0.3666000000000018
241.61 0.1999999999999993
241.927 0.23329999999999984
242.245 0.4665999999999997
242.56 0.33330000000000126
242.877 0.23329999999999984
243.192 0.3500000000000014
243.51 0.25
243.825 0.3000000000000007
244.142 0.25
244.459 0.33330000000000126
244.774 0.15000000000000213
245.092 0.4665999999999997
245.407 0.33330000000000126
245.724 0.33330000000000126
246.039 0.3666000000000018
246.356 0.16659999999999897
246.671 0.3000000000000007
246.988 0.33330000000000126
247.303 0.21659999999999968
247.62 0.3166000000000011
247.938 0.3166000000000011
248.253 0.2666000000000004
248.57 0.43329999999999913
248.885 0.21659999999999968
249.202 0.23329999999999984
249.517 0.13330000000000197
249.834 0.18329999999999913
250.149 0.16659999999999897
250.466 0.3666000000000018
250.781 0.41659999999999897
251.098 0.33330000000000126
251.412 0.40000000000000213
251.729 0.33330000000000126
252.044 0.21659999999999968
252.361 0.3500000000000014
252.676 0.3166000000000011
252.993 0.28330000000000055
253.308 0.28330000000000055
253.625 0.18329999999999913
253.94 0.3666000000000018
254.256 0.1999999999999993
254.571 0.21659999999999968
254.888 0.25
255.203 0.21659999999999968
255.518 0.2666000000000004
255.834 0.2666000000000004
256.149 0.43329999999999913
256.466 0.23329999999999984
256.781 0.15000000000000213
257.097 0.3000000000000007
257.412 0.18329999999999913
257.729 0.13330000000000197
258.044 0.3000000000000007
258.36 0.33330000000000126
258.675 0.25
258.99 0.28330000000000055
259.306 0.23329999999999984
259.621 0.25
259.938 0.21659999999999968
260.252 0.28330000000000055
260.569 0.3166000000000011
260.883 0.2666000000000004
261.198 0.18329999999999913
261.515 0.25
261.829 0.16659999999999897
262.146 0.25
262.46 0.383300000000002
262.775 0.21659999999999968
263.091 0.21659999999999968
263.406 0.3500000000000014
263.723 0.16659999999999897
264.037 0.3666000000000018
264.354 0.3000000000000007
264.668 0.21659999999999968
264.982 0.21659999999999968
265.299 0.16659999999999897
265.613 0.1999999999999993
265.928 0.40000000000000213
266.244 0.33330000000000126
266.559 0.2666000000000004
266.875 0.3500000000000014
267.189 0.1999999999999993
267.504 0.23329999999999984
267.82 0.1999999999999993
268.134 0.3000000000000007
268.449 0.3500000000000014
268.765 0.25
269.079 0.21659999999999968
269.394 0.28330000000000055
269.71 0.21659999999999968
270.024 0.25
270.341 0.33330000000000126
270.655 0.383300000000002
270.969 0.15000000000000213
271.286 0.2666000000000004
271.6 0.3666000000000018
271.914 0.3166000000000011
272.23 0.1999999999999993
272.544 0.2666000000000004
272.859 0.0666000000000011
273.175 0.4499999999999993
273.489 0.25
273.803 0.1999999999999993
274.119 0.40000000000000213
274.433 0.3000000000000007
274.747 0.3166000000000011
275.062 0.23329999999999984
275.378 0.3666000000000018
275.692 0.18329999999999913
276.006 0.1999999999999993
276.322 0.3166000000000011
276.636 0.15000000000000213
276.95 0.16659999999999897
277.266 0.18329999999999913
277.58 0.13330000000000197
277.894 0.13330000000000197
278.208 0.3000000000000007
278.524 0.3666000000000018
278.838 0.28330000000000055
279.152 0.33330000000000126
279.468 0.33330000000000126
279.782 0.23329999999999984
280.096 0.25
280.41 0.2666000000000004
280.726 0.25
281.04 0.3000000000000007
281.354 0.40000000000000213
281.668 0.3500000000000014
281.983 0.383300000000002
282.297 0.25
282.611 0.21659999999999968
282.925 0.23329999999999984
283.241 0.2666000000000004
283.555 0.3000000000000007
283.868 0.21659999999999968
284.182 0.3500000000000014
284.498 0.3000000000000007
284.812 0.5333000000000006
285.126 0.25
285.439 0.2666000000000004
285.753 0.3166000000000011
286.069 0.3000000000000007
286.383 0.33330000000000126
286.696 0.23329999999999984
287.01 0.383300000000002
287.326 0.13330000000000197
287.639 0.3666000000000018
287.953 0.2666000000000004
288.267 0.28330000000000055
288.58 0.383300000000002
288.896 0.40000000000000213
289.21 0.33330000000000126
289.523 0.28330000000000055
289.837 0.383300000000002
290.15 0.15000000000000213
290.466 0.383300000000002
290.78 0.21659999999999968
291.093 0.25
291.407 0.28330000000000055
291.72 0.1999999999999993
292.034 0.33330000000000126
292.349 0.21659999999999968
292.663 0.28330000000000055
292.976 0.21659999999999968
293.29 0.2666000000000004
293.603 0.3666000000000018
293.917 0.1999999999999993
294.232 0.40000000000000213
294.546 0.3000000000000007
294.859 0.2666000000000004
295.172 0.33330000000000126
295.486 0.16659999999999897
295.799 0.23329999999999984
296.113 0.15000000000000213
296.428 0.3666000000000018
296.741 0.2666000000000004
297.055 0.3500000000000014
297.368 0.2666000000000004
297.681 0.3500000000000014
297.995 0.28330000000000055
298.308 0.33330000000000126
298.621 0.23329999999999984
298.937 0.25
299.25 0.3500000000000014
299.563 0.2666000000000004
299.876 0.16659999999999897
300.19 0.23329999999999984
300.503 0.3166000000000011
300.816 0.2666000000000004
301.129 0.21659999999999968
301.442 0.3666000000000018
301.756 0.23329999999999984
302.071 0.2666000000000004
302.384 0.3166000000000011
302.697 0.28330000000000055
303.01 0.23329999999999984
303.323 0.18329999999999913
303.637 0.21659999999999968
303.95 0.25
304.263 0.3000000000000007
304.576 0.3666000000000018
304.889 0.3000000000000007
305.202 0.3666000000000018
305.515 0.18329999999999913
305.828 0.3000000000000007
306.141 0.3000000000000007
306.456 0.23329999999999984
306.769 0.25
307.082 0.23329999999999984
307.395 0.2666000000000004
307.708 0.3000000000000007
308.021 0.40000000000000213
308.334 0.3000000000000007
308.647 0.383300000000002
308.96 0.3000000000000007
309.273 0.25
309.586 0.33330000000000126
309.899 0.33330000000000126
310.212 0.13330000000000197
310.525 0.18329999999999913
310.838 0.3000000000000007
311.15 0.2666000000000004
311.463 0.25
311.776 0.1999999999999993
312.089 0.3500000000000014
312.402 0.33330000000000126
312.715 0.40000000000000213
313.027 0.40000000000000213
313.34 0.1999999999999993
313.653 0.18329999999999913
313.966 0.5666000000000011
314.278 0.3166000000000011
314.591 0.33330000000000126
314.904 0.25
315.217 0.2666000000000004
315.529 0.2666000000000004
315.842 0.33330000000000126
316.155 0.2666000000000004
316.467 0.3166000000000011
316.78 0.3500000000000014
317.093 0.3500000000000014
317.405 0.3000000000000007
317.718 0.3000000000000007
318.031 0.21659999999999968
318.343 0.383300000000002
318.656 0.23329999999999984
318.969 0.43329999999999913
319.281 0.3166000000000011
319.592 0.33330000000000126
319.904 0.2666000000000004
320.217 0.23329999999999984
320.529 0.33330000000000126
320.842 0.33330000000000126
321.154 0.4499999999999993
321.467 0.3000000000000007
321.779 0.3000000000000007
322.092 0.4499999999999993
322.404 0.3666000000000018
322.717 0.3000000000000007
323.029 0.3166000000000011
323.342 0.33330000000000126
323.654 0.40000000000000213
323.965 0.41659999999999897
324.277 0.2666000000000004
324.589 0.3000000000000007
324.902 0.43329999999999913
325.214 0.3500000000000014
325.527 0.21659999999999968
325.839 0.3166000000000011
326.151 0.41659999999999897
326.464 0.28330000000000055
326.776 0.43329999999999913
327.086 0.48329999999999984
327.399 0.3500000000000014
327.711 0.40000000000000213
328.023 0.3666000000000018
328.335 0.41659999999999897
328.648 0.33330000000000126
328.96 0.41659999999999897
329.27 0.28330000000000055
329.582 0.5500000000000007
329.895 0.6166000000000018
330.207 0.4665999999999997
330.519 0.4499999999999993
330.831 0.3500000000000014
331.143 0.5
331.454 0.3666000000000018
331.766 0.4665999999999997
332.078 0.4499999999999993
332.39 0.40000000000000213
332.702 0.3500000000000014
333.014 0.43329999999999913
333.326 0.4499999999999993
333.636 0.5
333.948 0.5500000000000007
334.261 0.4499999999999993
334.573 0.40000000000000213
334.885 0.48329999999999984
335.195 0.4499999999999993
335.507 0.3500000000000014
335.819 0.3666000000000018
336.131 0.48329999999999984
336.443 0.41659999999999897
336.753 0.43329999999999913
337.065 0.41659999999999897
337.377 0.40000000000000213
337.689 0.48329999999999984
338.001 0.3500000000000014
338.31 0.33330000000000126
338.622 0.383300000000002
338.934 0.48329999999999984
339.246 0.3666000000000018
339.558 0.28330000000000055
339.868 0.3166000000000011
340.18 0.3166000000000011
340.492 0.3666000000000018
340.804 0.3666000000000018
341.113 0.4499999999999993
341.425 0.48329999999999984
341.737 0.3166000000000011
342.049 0.41659999999999897
342.361 0.43329999999999913
342.67 0.33330000000000126
342.982 0.43329999999999913
343.294 0.4499999999999993
343.606 0.40000000000000213
343.915 0.4499999999999993
344.227 0.48329999999999984
344.539 0.4499999999999993
344.849 0.41659999999999897
345.16 0.43329999999999913
345.472 0.5333000000000006
345.784 0.3500000000000014
346.093 0.3500000000000014
346.405 0.3500000000000014
346.717 0.41659999999999897
347.028 0.25
347.338 0.43329999999999913
347.649 0.4665999999999997
347.961 0.43329999999999913
348.271 0.3666000000000018
348.582 0.28330000000000055
348.894 0.3166000000000011
349.205 0.5
349.515 0.40000000000000213
349.826 0.4499999999999993
350.138 0.33330000000000126
350.447 0.383300000000002
350.759 0.4665999999999997
351.07 0.43329999999999913
351.38 0.40000000000000213
351.691 0.40000000000000213
352.003 0.4665999999999997
352.312 0.3166000000000011
352.624 0.33330000000000126
352.935 0.43329999999999913
353.245 0.3000000000000007
353.556 0.3166000000000011
353.867 0.3500000000000014
354.177 0.3500000000000014
354.488 0.33330000000000126
354.799 0.41659999999999897
355.109 0.43329999999999913
355.42 0.3000000000000007
355.732 0.3166000000000011
356.041 0.4665999999999997
356.352 0.3166000000000011
356.663 0.41659999999999897
356.973 0.3166000000000011
357.284 0.3666000000000018
357.593 0.383300000000002
357.905 0.33330000000000126
358.216 0.3500000000000014
358.525 0.43329999999999913
358.836 0.40000000000000213
359.147 0.40000000000000213
359.457 0.4665999999999997
359.768 0.28330000000000055
360.077 0.4665999999999997
360.388 0.3000000000000007
360.699 0.5
361.008 0.3500000000000014
361.32 0.3166000000000011
361.629 0.3000000000000007
361.94 0.3000000000000007
362.251 0.33330000000000126
362.56 0.383300000000002
362.871 0.40000000000000213
363.18 0.41659999999999897
363.491 0.3166000000000011
363.8 0.383300000000002
364.111 0.40000000000000213
364.422 0.40000000000000213
364.731 0.3166000000000011
365.042 0.3666000000000018
365.351 0.4665999999999997
365.662 0.3000000000000007
365.971 0.33330000000000126
366.282 0.43329999999999913
366.593 0.5166000000000004
366.902 0.23329999999999984
367.213 0.5333000000000006
367.522 0.5333000000000006
367.833 0.3500000000000014
368.142 0.4499999999999993
368.453 0.33330000000000126
368.762 0.3666000000000018
369.073 0.2666000000000004
369.381 0.3500000000000014
369.692 0.41659999999999897
370.001 0.2666000000000004
370.312 0.40000000000000213
370.623 0.4499999999999993
370.932 0.25
371.242 0.2666000000000004
371.551 0.4665999999999997
371.862 0.383300000000002
372.171 0.3666000000000018
372.482 0.3666000000000018
372.79 0.3666000000000018
373.101 0.4665999999999997
373.41 0.4665999999999997
373.721 0.40000000000000213
374.029 0.5
374.34 0.2666000000000004
374.649 0.43329999999999913
374.959 0.383300000000002
375.268 0.33330000000000126
375.577 0.2666000000000004
375.887 0.41659999999999897
376.196 0.48329999999999984
376.506 0.43329999999999913
376.815 0.43329999999999913
377.126 0.5333000000000006
377.434 0.3500000000000014
377.745 0.28330000000000055
378.053 0.41659999999999897
378.364 0.5
378.672 0.3500000000000014
378.983 0.5666000000000011
379.292 0.40000000000000213
379.6 0.3666000000000018
379.911 0.4499999999999993
380.219 0.4499999999999993
380.53 0.43329999999999913
380.838 0.383300000000002
381.148 0.41659999999999897
381.457 0.40000000000000213
381.767 0.28330000000000055
382.076 0.4499999999999993
382.384 0.40000000000000213
382.695 0.5
383.003 0.3500000000000014
383.313 0.4665999999999997
383.622 0.48329999999999984
383.93 0.33330000000000126
384.24 0.40000000000000213
384.549 0.43329999999999913
384.859 0.43329999999999913
385.167 0.40000000000000213
385.476 0.48329999999999984
385.786 0.4665999999999997
386.094 0.5833000000000013
386.405 0.41659999999999897
386.713 0.5166000000000004
387.021 0.4665999999999997
387.331 0.4499999999999993
387.64 0.3666000000000018
387.948 0.4665999999999997
388.258 0.6166000000000018
388.566 0.4665999999999997
388.877 0.43329999999999913
389.185 0.40000000000000213
389.493 0.43329999999999913
389.803 0.383300000000002
390.111 0.4665999999999997
390.419 0.4665999999999997
390.729 0.4665999999999997
391.038 0.40000000000000213
391.346 0.40000000000000213
391.656 0.3000000000000007
391.964 0.43329999999999913
392.272 0.5
392.582 0.41659999999999897
392.89 0.40000000000000213
393.198 0.40000000000000213
393.508 0.5166000000000004
393.816 0.2666000000000004
394.124 0.383300000000002
394.434 0.5166000000000004
394.742 0.48329999999999984
395.05 0.3666000000000018
395.36 0.5
395.668 0.6999999999999993
395.976 0.5333000000000006
396.286 0.4665999999999997
396.594 0.383300000000002
396.902 0.5166000000000004
397.21 0.43329999999999913
397.52 0.3166000000000011
397.828 0.5333000000000006
398.135 0.40000000000000213
398.445 0.48329999999999984
398.753 0.5500000000000007
399.061 0.3666000000000018
399.369 0.25
399.679 0.4499999999999993
399.987 0.41659999999999897
400.294 0.4665999999999997
400.604 0.5500000000000007
400.912 0.41659999999999897
401.22 0.633300000000002
401.527 0.48329999999999984
401.837 0.48329999999999984
402.145 0.6166000000000018
402.453 0.5
402.76 0.4665999999999997
403.07 0.5333000000000006
403.378 0.5333000000000006
403.686 0.48329999999999984
403.993 0.5333000000000006
404.303 0.4665999999999997
404.611 0.5166000000000004
404.918 0.33330000000000126
405.226 0.3666000000000018
405.533 0.4499999999999993
405.843 0.48329999999999984
406.151 0.3000000000000007
406.458 0.5333000000000006
406.766 0.383300000000002
407.076 0.383300000000002
407.383 0.5166000000000004
407.691 0.40000000000000213
407.998 0.5500000000000007
408.306 0.5500000000000007
408.615 0.5166000000000004
408.923 0.6832999999999991
409.23 0.43329999999999913
409.538 0.633300000000002
409.845 0.5833000000000013
410.153 0.48329999999999984
410.462 0.4665999999999997
410.77 0.6999999999999993
411.077 0.40000000000000213
411.384 0.7332999999999998
411.692 0.5833000000000013
412.001 0.6999999999999993
412.309 0.666599999999999
412.616 0.5666000000000011
412.923 0.6999999999999993
413.231 0.75
413.538 0.7332999999999998
413.845 0.666599999999999
414.155 0.75
414.462 0.8333000000000013
414.769 0.9332999999999991
415.077 0.7833000000000006
415.384 0.633300000000002
415.691 0.8166000000000011
415.999 0.9499999999999993
416.308 0.9665999999999997
416.615 0.9332999999999991
416.922 0.8500000000000014
417.23 0.9332999999999991
417.537 0.8500000000000014
417.844 1.0333000000000006
418.151 1.133300000000002
418.458 1.0833000000000013
418.768 1.2666000000000004
419.075 1.2332999999999998
419.382 1.3500000000000014
419.689 1.1832999999999991
419.996 1.3333000000000013
420.303 1.4665999999999997
420.61 1.4332999999999991
420.918 1.3666000000000018
421.225 1.5166000000000004
421.532 1.633300000000002
421.841 1.7666000000000004
422.148 1.666599999999999
422.455 1.6000000000000014
422.762 1.666599999999999
423.069 1.4665999999999997
423.376 1.7332999999999998
423.683 1.5166000000000004
423.99 1.3333000000000013
424.297 1.8333000000000013
424.604 1.4832999999999998
424.911 1.6832999999999991
425.218 1.4499999999999993
425.525 1.4665999999999997
425.832 1.3500000000000014
426.139 1.666599999999999
426.446 1.5166000000000004
426.753 1.416599999999999
427.061 1.3500000000000014
427.368 1.3500000000000014
427.675 1.2666000000000004
427.982 1.3500000000000014
428.289 1.133300000000002
428.596 1.1166000000000018
428.903 1.1000000000000014
429.209 1.2332999999999998
429.516 0.9000000000000021
429.823 1.25
430.13 1.066600000000001
430.437 0.883300000000002
430.743 0.9832999999999998
431.05 0.916599999999999
431.357 0.883300000000002
431.664 0.8333000000000013
431.97 1.0333000000000006
432.277 0.9832999999999998
432.584 0.9000000000000021
432.891 0.7165999999999997
433.197 0.8000000000000007
433.504 0.7165999999999997
433.811 0.8666000000000018
434.117 0.8500000000000014
434.424 0.633300000000002
434.731 0.6832999999999991
435.037 0.6999999999999993
435.344 0.6832999999999991
435.65 0.6832999999999991
435.957 0.7332999999999998
436.262 0.7165999999999997
436.568 0.4665999999999997
436.875 0.75
437.181 0.6832999999999991
437.488 0.5666000000000011
437.794 0.6000000000000014
438.101 0.5666000000000011
438.407 0.75
438.714 0.5833000000000013
439.02 0.5833000000000013
439.327 0.633300000000002
439.633 0.633300000000002
439.94 0.7165999999999997
440.246 0.6000000000000014
440.553 0.5
440.859 0.666599999999999
441.163 0.48329999999999984
441.47 0.666599999999999
441.776 0.5666000000000011
442.083 0.633300000000002
442.389 0.5166000000000004
442.695 0.5500000000000007
443.002 0.6000000000000014
443.308 0.5166000000000004
443.614 0.4665999999999997
443.921 0.6000000000000014
444.225 0.40000000000000213
444.531 0.5666000000000011
444.838 0.40000000000000213
445.144 0.6166000000000018
445.45 0.43329999999999913
445.757 0.666599999999999
446.063 0.4665999999999997
446.369 0.3666000000000018
446.675 0.5666000000000011
446.979 0.6166000000000018
447.286 0.33330000000000126
447.592 0.6166000000000018
447.898 0.666599999999999
448.204 0.633300000000002
448.51 0.6500000000000021
448.817 0.633300000000002
449.121 0.5500000000000007
449.427 0.5333000000000006
449.733 0.5
450.039 0.5333000000000006
450.345 0.4665999999999997
450.651 0.4499999999999993
450.955 0.5166000000000004
451.261 0.666599999999999
451.568 0.40000000000000213
451.874 0.6999999999999993
452.18 0.6166000000000018
452.486 0.5500000000000007
452.79 0.5500000000000007
453.096 0.4499999999999993
453.402 0.666599999999999
453.708 0.4499999999999993
454.014 0.4665999999999997
454.318 0.5166000000000004
454.624 0.5666000000000011
454.93 0.633300000000002
455.236 0.4665999999999997
455.541 0.28330000000000055
455.845 0.5333000000000006
456.151 0.40000000000000213
456.457 0.5833000000000013
456.763 0.633300000000002
457.067 0.4665999999999997
457.373 0.41659999999999897
457.679 0.5333000000000006
457.985 0.6000000000000014
458.29 0.4499999999999993
458.594 0.6166000000000018
458.9 0.6500000000000021
459.206 0.41659999999999897
459.512 0.383300000000002
459.815 0.48329999999999984
460.121 0.3666000000000018
460.427 0.633300000000002
460.733 0.48329999999999984
461.036 0.40000000000000213
461.342 0.5166000000000004
461.648 0.5166000000000004
461.954 0.5666000000000011
462.257 0.6832999999999991
462.563 0.4499999999999993
462.869 0.5500000000000007
463.172 0.6000000000000014
463.478 0.48329999999999984
463.784 0.43329999999999913
464.089 0.5166000000000004
464.393 0.5
464.699 0.4665999999999997
465.004 0.48329999999999984
465.308 0.5833000000000013
465.613 0.383300000000002
465.919 0.4665999999999997
466.225 0.3500000000000014
466.528 0.5666000000000011
466.834 0.4665999999999997
467.139 0.5166000000000004
467.443 0.48329999999999984
467.748 0.5166000000000004
468.054 0.43329999999999913
468.357 0.5166000000000004
468.663 0.5
468.968 0.4665999999999997
469.272 0.4665999999999997
469.577 0.4665999999999997
469.883 0.3666000000000018
470.186 0.5500000000000007
470.492 0.48329999999999984
470.797 0.6832999999999991
471.1 0.5833000000000013
471.406 0.43329999999999913
471.711 0.5500000000000007
472.014 0.6000000000000014
472.32 0.5
472.625 0.48329999999999984
472.929 0.43329999999999913
473.234 0.4665999999999997
473.539 0.5
473.843 0.5166000000000004
474.148 0.6166000000000018
474.451 0.48329999999999984
474.756 0.6500000000000021
475.062 0.6500000000000021
475.365 0.6832999999999991
475.67 0.666599999999999
475.973 0.7332999999999998
476.279 0.8666000000000018
476.584 0.7165999999999997
476.887 1.1000000000000014
477.192 1.0
477.498 0.8500000000000014
477.801 1.0
478.106 0.9665999999999997
478.409 1.316600000000001
478.714 0.9499999999999993
479.017 1.0500000000000007
479.322 1.1999999999999993
479.628 0.9499999999999993
479.931 1.0500000000000007
480.236 1.25
480.539 1.166599999999999
480.844 1.1500000000000021
481.147 1.0166000000000004
481.452 1.1000000000000014
481.757 1.066600000000001
482.06 0.8000000000000007
482.365 1.0500000000000007
482.668 1.2833000000000006
482.973 0.8500000000000014
483.276 0.9499999999999993
483.581 1.0500000000000007
483.884 0.8166000000000011
484.189 0.666599999999999
484.494 0.8166000000000011
484.797 0.633300000000002
485.102 0.6000000000000014
485.405 0.6500000000000021
485.71 0.48329999999999984
486.013 0.75
486.318 0.5166000000000004
486.621 0.6000000000000014
486.925 0.666599999999999
487.228 0.666599999999999
487.533 0.7165999999999997
487.836 0.5
488.141 0.6166000000000018
488.444 0.5
488.748 0.43329999999999913
489.051 0.4665999999999997
489.356 0.5833000000000013
489.659 0.7833000000000006
489.964 0.4665999999999997
490.266 0.41659999999999897
490.571 0.633300000000002
490.874 0.6000000000000014
491.179 0.48329999999999984
491.481 0.5833000000000013
491.786 0.383300000000002
492.089 0.4665999999999997
492.393 0.383300000000002
492.696 0.4665999999999997
493.001 0.48329999999999984
493.303 0.43329999999999913
493.606 0.48329999999999984
493.911 0.4665999999999997
494.213 0.5833000000000013
494.518 0.3166000000000011
494.821 0.40000000000000213
495.125 0.3500000000000014
495.428 0.48329999999999984
495.732 0.6000000000000014
496.035 0.4665999999999997
496.337 0.4499999999999993
496.642 0.3666000000000018
496.945 0.43329999999999913
497.249 0.5833000000000013
497.552 0.48329999999999984
497.856 0.383300000000002
498.159 0.5833000000000013
498.461 0.43329999999999913
498.766 0.5666000000000011
499.068 0.4665999999999997
499.372 0.5333000000000006
499.675 0.4499999999999993
499.977 0.4499999999999993
500.282 0.5666000000000011
500.584 0.43329999999999913
500.889 0.41659999999999897
501.191 0.5166000000000004
501.493 0.5666000000000011
501.798 0.43329999999999913
502.1 0.33330000000000126
502.402 0.43329999999999913
502.707 0.5666000000000011
503.009 0.3666000000000018
503.314 0.4665999999999997
503.616 0.5166000000000004
503.918 0.4499999999999993
504.222 0.5500000000000007
504.525 0.383300000000002
504.827 0.43329999999999913
505.131 0.41659999999999897
505.433 0.43329999999999913
505.736 0.3666000000000018
506.04 0.48329999999999984
506.342 0.5500000000000007
506.646 0.33330000000000126
506.949 0.5666000000000011
507.251 0.5333000000000006
507.555 0.43329999999999913
507.857 0.3666000000000018
508.159 0.40000000000000213
508.461 0.41659999999999897
508.766 0.383300000000002
509.068 0.33330000000000126
509.37 0.3666000000000018
509.674 0.3666000000000018
509.976 0.43329999999999913
510.278 0.3666000000000018
510.582 0.41659999999999897
510.884 0.5333000000000006
511.186 0.3166000000000011
511.49 0.43329999999999913
511.792 0.4499999999999993
512.094 0.3500000000000014
512.396 0.5500000000000007
512.701 0.3000000000000007
513.003 0.5333000000000006
513.305 0.5500000000000007
513.609 0.3666000000000018
513.91 0.5666000000000011
514.212 0.383300000000002
514.514 0.3666000000000018
514.818 0.41659999999999897
515.12 0.43329999999999913
515.422 0.3666000000000018
515.724 0.5833000000000013
516.028 0.4665999999999997
516.33 0.5166000000000004
516.632 0.41659999999999897
516.934 0.3666000000000018
517.237 0.5166000000000004
517.539 0.5666000000000011
517.841 0.5
518.143 0.4499999999999993
518.447 0.3666000000000018
518.749 0.4499999999999993
519.05 0.3666000000000018
519.352 0.3166000000000011
519.656 0.4499999999999993
519.958 0.5500000000000007
520.26 0.4665999999999997
520.561 0.5500000000000007
520.863 0.3166000000000011
521.167 0.33330000000000126
521.468 0.4499999999999993
521.77 0.3500000000000014
522.072 0.48329999999999984
522.376 0.4499999999999993
522.677 0.633300000000002
522.979 0.5166000000000004
523.281 0.4499999999999993
523.582 0.41659999999999897
523.884 0.4499999999999993
524.187 0.48329999999999984
524.489 0.4499999999999993
524.791 0.5
525.092 0.5500000000000007
525.394 0.5333000000000006
525.697 0.4665999999999997
525.999 0.4665999999999997
526.301 0.5333000000000006
526.602 0.4665999999999997
526.904 0.3666000000000018
527.205 0.4665999999999997
527.507 0.3500000000000014
527.81 0.3166000000000011
528.112 0.383300000000002
528.413 0.48329999999999984
528.715 0.5
529.016 0.5166000000000004
529.318 0.5166000000000004
529.619 0.41659999999999897
529.922 0.5166000000000004
530.224 0.4665999999999997
530.525 0.4665999999999997
530.827 0.3666000000000018
531.128 0.40000000000000213
531.429 0.4665999999999997
531.731 0.41659999999999897
532.032 0.5833000000000013
532.336 0.43329999999999913
532.637 0.40000000000000213
532.938 0.48329999999999984
533.24 0.3166000000000011
533.541 0.383300000000002
533.842 0.3666000000000018
534.143 0.5500000000000007
534.445 0.3000000000000007
534.746 0.43329999999999913
535.047 0.40000000000000213
535.351 0.5333000000000006
535.652 0.40000000000000213
535.953 0.6000000000000014
536.254 0.48329999999999984
536.555 0.6166000000000018
536.857 0.3666000000000018
537.158 0.43329999999999913
537.459 0.5
537.76 0.5833000000000013
538.061 0.5
538.362 0.4665999999999997
538.664 0.4665999999999997
538.965 0.5
539.266 0.48329999999999984
539.567 0.5
539.868 0.5833000000000013
540.169 0.5333000000000006
540.472 0.43329999999999913
540.773 0.5666000000000011
541.074 0.5500000000000007
541.375 0.5166000000000004
541.677 0.5166000000000004
541.978 0.5
542.279 0.4499999999999993
542.58 0.41659999999999897
542.881 0.3666000000000018
543.182 0.48329999999999984
543.483 0.633300000000002
543.784 0.633300000000002
544.085 0.3666000000000018
544.385 0.4665999999999997
544.686 0.4499999999999993
544.987 0.5333000000000006
545.288 0.3666000000000018
545.589 0.3166000000000011
545.89 0.40000000000000213
546.191 0.666599999999999
546.492 0.4665999999999997
546.793 0.6166000000000018
547.094 0.5333000000000006
547.394 0.5333000000000006
547.695 0.3666000000000018
547.996 0.666599999999999
548.297 0.5666000000000011
548.596 0.3666000000000018
548.897 0.7332999999999998
549.197 0.4499999999999993
549.498 0.4665999999999997
549.799 0.666599999999999
550.1 0.5333000000000006
550.4 0.666599999999999
550.701 0.5833000000000013
551.002 0.4665999999999997
551.303 0.5
551.603 0.633300000000002
551.904 0.5500000000000007
552.205 0.6166000000000018
552.505 0.666599999999999
552.806 0.9000000000000021
553.107 0.633300000000002
553.407 0.6832999999999991
553.706 0.5833000000000013
554.007 0.7666000000000004
554.307 0.7332999999999998
554.608 0.7165999999999997
554.909 0.916599999999999
555.209 0.9332999999999991
555.51 0.6832999999999991
555.81 0.7332999999999998
556.111 0.75
556.411 0.666599999999999
556.71 0.666599999999999
557.01 0.6000000000000014
557.311 0.666599999999999
557.612 0.7833000000000006
557.912 0.666599999999999
558.213 0.7332999999999998
558.513 0.6500000000000021
558.813 0.6500000000000021
559.112 0.6832999999999991
559.412 0.7165999999999997
559.713 0.48329999999999984
560.013 0.6166000000000018
560.314 0.5
560.614 0.5833000000000013
560.914 0.633300000000002
561.213 0.43329999999999913
561.513 0.6166000000000018
561.814 0.5500000000000007
562.114 0.5
562.414 0.5
562.715 0.5833000000000013
563.015 0.5166000000000004
563.313 0.5666000000000011
563.614 0.633300000000002
563.914 0.633300000000002
564.214 0.5
564.515 0.5500000000000007
564.813 0.5500000000000007
565.113 0.5
565.413 0.4499999999999993
565.714 0.4665999999999997
566.014 0.4665999999999997
566.312 0.4499999999999993
566.612 0.5833000000000013
566.912 0.43329999999999913
567.213 0.5500000000000007
567.513 0.3500000000000014
567.811 0.4499999999999993
568.111 0.5500000000000007
568.411 0.3666000000000018
568.712 0.6999999999999993
569.012 0.4665999999999997
569.31 0.40000000000000213
569.61 0.5333000000000006
569.91 0.48329999999999984
570.21 0.33330000000000126
570.508 0.383300000000002
570.808 0.5166000000000004
571.108 0.4665999999999997
571.408 0.33330000000000126
571.706 0.41659999999999897
572.006 0.383300000000002
572.306 0.3500000000000014
572.607 0.5166000000000004
572.904 0.5
573.204 0.41659999999999897
573.505 0.48329999999999984
573.805 0.33330000000000126
574.102 0.41659999999999897
574.402 0.3500000000000014
574.702 0.6500000000000021
575.002 0.48329999999999984
575.3 0.40000000000000213
575.6 0.33330000000000126
575.9 0.5333000000000006
576.198 0.5500000000000007
576.498 0.41659999999999897
576.798 0.43329999999999913
577.098 0.5166000000000004
577.395 0.383300000000002
577.695 0.3166000000000011
577.995 0.3500000000000014
578.293 0.4499999999999993
578.593 0.48329999999999984
578.893 0.4499999999999993
579.19 0.5
579.49 0.4665999999999997
579.79 0.3166000000000011
580.088 0.4499999999999993
580.387 0.5
580.687 0.4499999999999993
580.985 0.43329999999999913
581.285 0.40000000000000213
581.584 0.3666000000000018
581.882 0.3666000000000018
582.182 0.5833000000000013
582.482 0.5166000000000004
582.779 0.41659999999999897
583.079 0.5
583.378 0.3500000000000014
583.676 0.5500000000000007
583.976 0.4499999999999993
584.275 0.5
584.573 0.5
584.873 0.383300000000002
585.17 0.3666000000000018
585.47 0.5
585.769 0.383300000000002
586.067 0.5166000000000004
586.367 0.41659999999999897
586.666 0.5333000000000006
586.964 0.41659999999999897
587.263 0.41659999999999897
587.561 0.5333000000000006
587.86 0.5166000000000004
588.16 0.5166000000000004
588.457 0.4499999999999993
588.757 0.5
589.054 0.5166000000000004
589.354 0.40000000000000213
589.653 0.5166000000000004
589.951 0.40000000000000213
590.25 0.41659999999999897
590.547 0.48329999999999984
590.847 0.4665999999999997
591.144 0.4665999999999997
591.444 0.5500000000000007
591.743 0.41659999999999897
592.04 0.5833000000000013
592.34 0.4665999999999997
592.637 0.48329999999999984
592.936 0.5666000000000011
593.234 0.4665999999999997
593.533 0.33330000000000126
593.832 0.4499999999999993
594.13 0.5166000000000004
594.429 0.5500000000000007
594.726 0.48329999999999984
595.026 0.41659999999999897
595.323 0.3666000000000018
595.622 0.5666000000000011
595.919 0.383300000000002
596.219 0.41659999999999897
596.516 0.41659999999999897
596.815 0.4499999999999993
597.112 0.48329999999999984
597.411 0.4665999999999997
597.709 0.5500000000000007
598.008 0.41659999999999897
598.305 0.383300000000002
598.604 0.5333000000000006
598.901 0.48329999999999984
599.2 0.48329999999999984
599.497 0.6000000000000014
599.797 0.3166000000000011
600.094 0.4499999999999993
600.393 0.383300000000002
600.69 0.5166000000000004
600.989 0.6000000000000014
601.286 0.33330000000000126
601.585 0.40000000000000213
601.882 0.5166000000000004
602.181 0.4499999999999993
602.478 0.5666000000000011
602.777 0.5166000000000004
603.074 0.5333000000000006
603.373 0.666599999999999
603.67 0.43329999999999913
603.969 0.5833000000000013
604.266 0.5
604.563 0.6166000000000018
604.862 0.3666000000000018
605.159 0.633300000000002
605.458 0.5833000000000013
605.755 0.43329999999999913
606.054 0.5
606.351 0.4665999999999997
606.65 0.5333000000000006
606.946 0.6166000000000018
607.243 0.43329999999999913
607.542 0.4665999999999997
607.839 0.666599999999999
608.138 0.633300000000002
608.435 0.5500000000000007
608.732 0.41659999999999897
609.03 0.666599999999999
609.327 0.48329999999999984
609.626 0.5166000000000004
609.923 0.6000000000000014
610.22 0.5333000000000006
610.518 0.6832999999999991
610.815 0.5500000000000007
611.114 0.6500000000000021
611.411 0.5166000000000004
611.707 0.6000000000000014
612.006 0.7833000000000006
612.303 0.5166000000000004
612.601 0.5333000000000006
612.898 0.666599999999999
613.195 0.5833000000000013
613.493 0.6166000000000018
613.79 0.6166000000000018
614.087 0.7332999999999998
614.385 0.6500000000000021
614.682 0.5500000000000007
614.979 0.6500000000000021
615.277 0.666599999999999
615.574 0.6832999999999991
615.87 0.48329999999999984
616.169 0.6166000000000018
616.466 0.666599999999999
616.764 0.6999999999999993
617.061 0.633300000000002
617.357 0.666599999999999
617.656 0.666599999999999
617.952 0.5500000000000007
618.249 0.6000000000000014
618.545 0.6000000000000014
618.844 0.666599999999999
619.14 0.5
619.437 0.48329999999999984
619.735 0.5833000000000013
620.032 0.666599999999999
620.328 0.5833000000000013
620.626 0.6832999999999991
620.923 0.5666000000000011
621.219 0.41659999999999897
621.518 0.383300000000002
621.814 0.43329999999999913
622.11 0.4665999999999997
622.407 0.40000000000000213
622.705 0.383300000000002
623.002 0.4665999999999997
623.298 0.633300000000002
623.594 0.6166000000000018
623.893 0.48329999999999984
624.189 0.43329999999999913
624.485 0.5833000000000013
624.784 0.5333000000000006
625.08 0.40000000000000213
625.376 0.43329999999999913
625.672 0.5833000000000013
625.971 0.48329999999999984
626.267 0.5333000000000006
626.563 0.4499999999999993
626.859 0.4665999999999997
627.158 0.5
627.454 0.3166000000000011
627.75 0.23329999999999984
628.046 0.5666000000000011
628.342 0.4499999999999993
628.641 0.6500000000000021
628.937 0.3666000000000018
629.233 0.5500000000000007
629.529 0.6000000000000014
629.827 0.48329999999999984
630.123 0.6166000000000018
630.419 0.5500000000000007
630.715 0.33330000000000126
631.011 0.4665999999999997
631.31 0.48329999999999984
631.606 0.5833000000000013
631.902 0.48329999999999984
632.198 0.5
632.494 0.5500000000000007
632.792 0.43329999999999913
633.088 0.3000000000000007
633.384 0.6000000000000014
633.68 0.3166000000000011
633.976 0.48329999999999984
634.272 0.43329999999999913
634.57 0.5500000000000007
634.866 0.4499999999999993
635.162 0.4665999999999997
635.458 0.3666000000000018
635.754 0.4665999999999997
636.05 0.41659999999999897
636.347 0.41659999999999897
636.643 0.48329999999999984
636.939 0.3166000000000011
637.235 0.6832999999999991
637.531 0.5333000000000006
637.827 0.5500000000000007
638.123 0.43329999999999913
638.421 0.5333000000000006
638.716 0.41659999999999897
639.012 0.5
639.308 0.5166000000000004
639.604 0.5666000000000011
639.9 0.5166000000000004
640.195 0.5500000000000007
640.491 0.5
640.789 0.4499999999999993
641.085 0.5333000000000006
641.381 0.6166000000000018
641.676 0.4665999999999997
641.972 0.4665999999999997
642.268 0.5500000000000007
642.563 0.666599999999999
642.859 0.40000000000000213
643.155 0.4499999999999993
643.451 0.5166000000000004
643.746 0.41659999999999897
644.044 0.6000000000000014
644.34 0.40000000000000213
644.635 0.5333000000000006
644.931 0.5166000000000004
645.227 0.41659999999999897
645.522 0.48329999999999984
645.818 0.33330000000000126
646.113 0.5333000000000006
646.409 0.48329999999999984
646.704 0.5500000000000007
647.0 0.5333000000000006
647.296 0.5166000000000004
647.591 0.5666000000000011
647.887 0.5
648.182 0.633300000000002
648.478 0.5
648.773 0.383300000000002
649.069 0.5166000000000004
649.366 0.4499999999999993
649.662 0.5333000000000006
649.957 0.5833000000000013
650.253 0.4499999999999993
650.548 0.5333000000000006
650.844 0.5166000000000004
651.139 0.633300000000002
651.434 0.5833000000000013
651.73 0.4499999999999993
652.025 0.5166000000000004
652.321 0.666599999999999
652.616 0.5833000000000013
652.911 0.5
653.207 0.6832999999999991
653.502 0.43329999999999913
653.797 0.5166000000000004
654.093 0.5666000000000011
654.388 0.6166000000000018
654.683 0.75
654.979 0.6166000000000018
655.274 0.666599999999999
655.567 0.6500000000000021
655.863 0.633300000000002
656.158 0.7833000000000006
656.453 0.8666000000000018
656.748 0.6166000000000018
657.044 0.6832999999999991
657.339 0.8333000000000013
657.634 0.7165999999999997
657.929 0.75
658.224 0.6832999999999991
658.52 0.8666000000000018
658.815 0.7666000000000004
659.11 0.666599999999999
659.405 0.6999999999999993
659.7 0.8666000000000018
659.995 0.7666000000000004
660.291 0.6832999999999991
660.586 0.8333000000000013
660.879 0.8000000000000007
661.174 0.8500000000000014
661.469 0.7833000000000006
661.764 0.8166000000000011
662.059 0.8166000000000011
662.354 0.8166000000000011
662.649 0.8333000000000013
662.944 0.8166000000000011
663.239 0.75
663.534 0.8000000000000007
663.83 0.6832999999999991
664.122 0.6166000000000018
664.417 0.5666000000000011
664.713 0.7666000000000004
665.008 0.75
665.302 0.6166000000000018
665.597 0.9000000000000021
665.892 0.5500000000000007
666.187 0.5500000000000007
666.48 0.4499999999999993
666.775 0.6000000000000014
667.07 0.6832999999999991
667.365 0.5833000000000013
667.66 0.5333000000000006
667.955 0.5500000000000007
668.25 0.5666000000000011
668.542 0.5500000000000007
668.837 0.633300000000002
669.132 0.5500000000000007
669.427 0.5666000000000011
669.722 0.6166000000000018
670.017 0.4499999999999993
670.31 0.5833000000000013
670.604 0.48329999999999984
670.899 0.41659999999999897
671.194 0.6166000000000018
671.489 0.33330000000000126
671.783 0.48329999999999984
672.076 0.6166000000000018
672.371 0.6000000000000014
672.666 0.6500000000000021
672.96 0.43329999999999913
673.255 0.5166000000000004
673.548 0.6500000000000021
673.842 0.4499999999999993
674.137 0.6500000000000021
674.432 0.5833000000000013
674.727 0.633300000000002
675.019 0.4499999999999993
675.314 0.5500000000000007
675.608 0.4499999999999993
675.903 0.4665999999999997
676.196 0.5666000000000011
676.49 0.40000000000000213
676.785 0.48329999999999984
677.079 0.5666000000000011
677.374 0.3666000000000018
677.667 0.5500000000000007
677.961 0.666599999999999
678.256 0.5
678.55 0.5166000000000004
678.843 0.5500000000000007
679.137 0.5
679.432 0.3666000000000018
679.726 0.5500000000000007
680.019 0.5666000000000011
680.313 0.4499999999999993
680.608 0.5666000000000011
680.902 0.5500000000000007
681.195 0.5833000000000013
681.489 0.5666000000000011
681.784 0.4665999999999997
682.076 0.6000000000000014
682.37 0.4665999999999997
682.665 0.7332999999999998
682.959 0.5500000000000007
683.252 0.5833000000000013
683.546 0.6000000000000014
683.84 0.5166000000000004
684.133 0.48329999999999984
684.427 0.5833000000000013
684.721 0.4665999999999997
685.014 0.5333000000000006
685.308 0.5333000000000006
685.602 0.5166000000000004
685.895 0.5333000000000006
686.189 0.3500000000000014
686.483 0.5
686.778 0.3166000000000011
687.07 0.5333000000000006
687.364 0.5500000000000007
687.658 0.6166000000000018
687.951 0.5500000000000007
688.245 0.5166000000000004
688.537 0.48329999999999984
688.831 0.5833000000000013
689.125 0.383300000000002
689.418 0.5
689.712 0.43329999999999913
690.006 0.4499999999999993
690.298 0.4665999999999997
690.592 0.4499999999999993
690.886 0.383300000000002
691.178 0.40000000000000213
691.473 0.5833000000000013
691.767 0.4499999999999993
692.059 0.4665999999999997
692.353 0.5
692.645 0.5
692.939 0.43329999999999913
693.233 0.3166000000000011
693.525 0.5500000000000007
693.819 0.5166000000000004
694.111 0.5500000000000007
694.405 0.40000000000000213
694.699 0.48329999999999984
694.991 0.5
695.285 0.5166000000000004
695.577 0.5333000000000006
695.871 0.41659999999999897
696.165 0.3666000000000018
696.457 0.5666000000000011
696.751 0.3500000000000014
697.043 0.3666000000000018
697.337 0.5166000000000004
697.629 0.40000000000000213
697.923 0.5833000000000013
698.217 0.48329999999999984
698.509 0.4665999999999997
698.802 0.5666000000000011
699.094 0.48329999999999984
699.388 0.5833000000000013
699.68 0.5500000000000007
699.974 0.41659999999999897
700.266 0.43329999999999913
700.56 0.383300000000002
700.853 0.4499999999999993
701.145 0.5833000000000013
701.439 0.43329999999999913
701.731 0.4665999999999997
702.025 0.5833000000000013
702.316 0.5833000000000013
702.61 0.5
702.902 0.5500000000000007
703.196 0.5166000000000004
703.487 0.383300000000002
703.781 0.40000000000000213
704.073 0.43329999999999913
704.367 0.383300000000002
704.658 0.48329999999999984
704.952 0.5333000000000006
705.244 0.5833000000000013
705.537 0.4665999999999997
705.829 0.6166000000000018
706.122 0.3500000000000014
706.414 0.383300000000002
706.708 0.5
706.999 0.25
707.293 0.6000000000000014
