# Created: 2019-11-28 13:05:38.279730
# rshift intensity
76.1738 0.3500000000000014
76.4989 0.3000000000000007
76.824 0.31670000000000087
77.1491 0.383300000000002
77.4721 0.28330000000000055
77.7972 0.08330000000000126
78.1223 0.18330000000000268
78.4474 0.13330000000000197
78.7724 0.20000000000000284
79.0975 0.15000000000000213
79.4204 0.18330000000000268
79.7454 0.18330000000000268
80.0704 0.18330000000000268
80.3954 0.13330000000000197
80.7204 0.15000000000000213
81.0454 0.11670000000000158
81.3682 0.11670000000000158
81.6931 0.11670000000000158
82.0181 0.216700000000003
82.343 0.11670000000000158
82.6679 0.08330000000000126
82.9907 0.11670000000000158
83.3156 0.15000000000000213
83.6405 0.13330000000000197
83.9654 0.11670000000000158
84.2903 0.20000000000000284
84.613 0.216700000000003
84.9378 0.18330000000000268
85.2626 0.18330000000000268
85.5875 0.216700000000003
85.9101 0.18330000000000268
86.2349 0.13330000000000197
86.5597 0.20000000000000284
86.8845 0.08330000000000126
87.2093 0.1667000000000023
87.5319 0.1667000000000023
87.8566 0.33330000000000126
88.1814 0.13330000000000197
88.5061 0.11670000000000158
88.8286 0.1667000000000023
89.1533 0.216700000000003
89.478 0.1667000000000023
89.8027 0.1667000000000023
90.1252 0.20000000000000284
90.4499 0.06670000000000087
90.7745 0.15000000000000213
91.0992 0.1667000000000023
91.4216 0.11670000000000158
91.7462 0.1667000000000023
92.0708 0.08330000000000126
92.3954 0.11670000000000158
92.7179 0.1667000000000023
93.0424 0.13330000000000197
93.367 0.20000000000000284
93.6915 0.1667000000000023
94.0139 0.13330000000000197
94.3384 0.15000000000000213
94.6629 0.08330000000000126
94.9853 0.15000000000000213
95.3098 0.11670000000000158
95.6342 0.20000000000000284
95.9587 0.216700000000003
96.281 0.15000000000000213
96.6055 0.11670000000000158
96.9299 0.1667000000000023
97.2522 0.15000000000000213
97.5766 0.11670000000000158
97.901 0.23329999999999984
98.2232 0.1667000000000023
98.5476 0.18330000000000268
98.8719 0.11670000000000158
99.1942 0.03330000000000055
99.5185 0.10000000000000142
99.8428 0.25
100.165 0.1667000000000023
100.489 0.15000000000000213
100.814 0.383300000000002
101.136 0.1667000000000023
101.46 0.15000000000000213
101.784 0.20000000000000284
102.106 0.1667000000000023
102.431 0.11670000000000158
102.755 0.20000000000000284
103.077 0.23329999999999984
103.401 0.0
103.725 0.18330000000000268
104.047 0.18330000000000268
104.372 0.216700000000003
104.696 0.216700000000003
105.018 0.15000000000000213
105.342 0.25
105.666 0.15000000000000213
105.988 0.01670000000000016
106.312 0.25
106.634 0.13330000000000197
106.958 0.26670000000000016
107.282 0.05000000000000071
107.604 0.216700000000003
107.928 0.25
108.252 0.20000000000000284
108.574 0.25
108.898 0.23329999999999984
109.22 0.1667000000000023
109.544 0.20000000000000284
109.868 0.20000000000000284
110.19 0.3000000000000007
110.514 0.11670000000000158
110.836 0.15000000000000213
111.159 0.25
111.483 0.1667000000000023
111.805 0.23329999999999984
112.129 0.20000000000000284
112.451 0.10000000000000142
112.775 0.11670000000000158
113.096 0.28330000000000055
113.42 0.28330000000000055
113.744 0.25
114.066 0.03330000000000055
114.39 0.10000000000000142
114.711 0.20000000000000284
115.035 0.25
115.357 0.20000000000000284
115.681 0.25
116.004 0.26670000000000016
116.326 0.18330000000000268
116.65 0.10000000000000142
116.971 0.15000000000000213
117.295 0.3500000000000014
117.617 0.10000000000000142
117.94 0.15000000000000213
118.262 0.18330000000000268
118.586 0.3000000000000007
118.907 0.20000000000000284
119.231 0.10000000000000142
119.554 0.18330000000000268
119.876 0.10000000000000142
120.199 0.15000000000000213
120.521 0.3000000000000007
120.845 0.11670000000000158
121.166 0.11670000000000158
121.49 0.08330000000000126
121.811 0.20000000000000284
122.135 0.28330000000000055
122.456 0.13330000000000197
122.78 0.15000000000000213
123.101 0.3500000000000014
123.424 0.10000000000000142
123.746 0.20000000000000284
124.069 0.23329999999999984
124.391 0.216700000000003
124.714 0.18330000000000268
125.035 0.11670000000000158
125.359 0.28330000000000055
125.68 0.13330000000000197
126.004 0.13330000000000197
126.325 0.06670000000000087
126.648 0.10000000000000142
126.97 0.25
127.291 0.18330000000000268
127.614 0.15000000000000213
127.935 0.18330000000000268
128.259 0.13330000000000197
128.58 0.20000000000000284
128.903 0.18330000000000268
129.224 0.26670000000000016
129.548 0.25
129.869 0.216700000000003
130.192 0.20000000000000284
130.513 0.15000000000000213
130.834 0.28330000000000055
131.158 0.25
131.479 0.216700000000003
131.802 0.23329999999999984
132.123 0.26670000000000016
132.446 0.25
132.767 0.23329999999999984
133.09 0.25
133.411 0.15000000000000213
133.733 0.18330000000000268
134.056 0.08330000000000126
134.377 0.26670000000000016
134.7 0.15000000000000213
135.021 0.1667000000000023
135.342 0.13330000000000197
135.665 0.18330000000000268
135.986 0.1667000000000023
136.309 0.18330000000000268
136.63 0.23329999999999984
136.951 0.1667000000000023
137.274 0.23329999999999984
137.595 0.216700000000003
137.918 0.216700000000003
138.238 0.11670000000000158
138.559 0.10000000000000142
138.882 0.1667000000000023
139.203 0.28330000000000055
139.526 0.1667000000000023
139.847 0.26670000000000016
140.168 0.18330000000000268
140.491 0.1667000000000023
140.811 0.1667000000000023
141.132 0.15000000000000213
141.455 0.28330000000000055
141.776 0.25
142.097 0.20000000000000284
142.419 0.1667000000000023
142.74 0.216700000000003
143.061 0.13330000000000197
143.384 0.23329999999999984
143.704 0.23329999999999984
144.027 0.23329999999999984
144.348 0.25
144.668 0.08330000000000126
144.991 0.23329999999999984
145.312 0.383300000000002
145.632 0.216700000000003
145.955 0.23329999999999984
146.276 0.28330000000000055
146.596 0.11670000000000158
146.917 0.23329999999999984
147.24 0.11670000000000158
147.56 0.25
147.881 0.23329999999999984
148.203 0.11670000000000158
148.524 0.216700000000003
148.844 0.1667000000000023
149.167 0.18330000000000268
149.487 0.3500000000000014
149.808 0.10000000000000142
150.131 0.20000000000000284
150.451 0.15000000000000213
150.771 0.23329999999999984
151.092 0.216700000000003
151.414 0.11670000000000158
151.735 0.20000000000000284
152.055 0.3000000000000007
152.378 0.216700000000003
152.698 0.20000000000000284
153.018 0.23329999999999984
153.339 0.13330000000000197
153.661 0.15000000000000213
153.982 0.216700000000003
154.302 0.18330000000000268
154.622 0.1667000000000023
154.945 0.25
155.265 0.11670000000000158
155.585 0.23329999999999984
155.905 0.18330000000000268
156.228 0.1667000000000023
156.548 0.216700000000003
156.868 0.11670000000000158
157.188 0.25
157.511 0.1667000000000023
157.831 0.23329999999999984
158.151 0.26670000000000016
158.471 0.216700000000003
158.794 0.1667000000000023
159.114 0.3000000000000007
159.434 0.33330000000000126
159.754 0.20000000000000284
160.074 0.18330000000000268
160.396 0.18330000000000268
160.717 0.11670000000000158
161.037 0.11670000000000158
161.357 0.18330000000000268
161.679 0.13330000000000197
161.999 0.216700000000003
162.319 0.15000000000000213
162.639 0.216700000000003
162.959 0.1667000000000023
163.281 0.26670000000000016
163.601 0.15000000000000213
163.921 0.3000000000000007
164.241 0.28330000000000055
164.561 0.23329999999999984
164.881 0.20000000000000284
165.203 0.20000000000000284
165.523 0.26670000000000016
165.843 0.28330000000000055
166.163 0.28330000000000055
166.483 0.23329999999999984
166.803 0.31670000000000087
167.125 0.28330000000000055
167.445 0.216700000000003
167.764 0.26670000000000016
168.084 0.25
168.404 0.383300000000002
168.724 0.216700000000003
169.046 0.20000000000000284
169.366 0.31670000000000087
169.685 0.26670000000000016
170.005 0.25
170.325 0.11670000000000158
170.645 0.18330000000000268
170.964 0.23329999999999984
171.286 0.13330000000000197
171.606 0.33330000000000126
171.926 0.26670000000000016
172.245 0.216700000000003
172.565 0.15000000000000213
172.885 0.216700000000003
173.204 0.13330000000000197
173.524 0.31670000000000087
173.846 0.26670000000000016
174.166 0.25
174.485 0.18330000000000268
174.805 0.3500000000000014
175.124 0.1667000000000023
175.444 0.13330000000000197
175.764 0.15000000000000213
176.083 0.10000000000000142
176.403 0.31670000000000087
176.722 0.13330000000000197
177.044 0.216700000000003
177.363 0.1667000000000023
177.683 0.08330000000000126
178.002 0.25
178.322 0.20000000000000284
178.641 0.18330000000000268
178.961 0.28330000000000055
179.28 0.20000000000000284
179.6 0.28330000000000055
179.919 0.216700000000003
180.239 0.20000000000000284
180.558 0.1667000000000023
180.877 0.18330000000000268
181.197 0.1667000000000023
181.516 0.25
181.838 0.1667000000000023
182.157 0.31670000000000087
182.476 0.20000000000000284
182.796 0.1667000000000023
183.115 0.18330000000000268
183.434 0.18330000000000268
183.754 0.20000000000000284
184.073 0.1667000000000023
184.392 0.18330000000000268
184.712 0.20000000000000284
185.031 0.20000000000000284
185.35 0.1667000000000023
185.669 0.15000000000000213
185.989 0.25
186.308 0.18330000000000268
186.627 0.26670000000000016
186.946 0.15000000000000213
187.265 0.216700000000003
187.585 0.15000000000000213
187.904 0.23329999999999984
188.223 0.18330000000000268
188.542 0.11670000000000158
188.861 0.25
189.18 0.1667000000000023
189.499 0.18330000000000268
189.818 0.1667000000000023
190.138 0.26670000000000016
190.457 0.26670000000000016
190.776 0.18330000000000268
191.095 0.08330000000000126
191.414 0.18330000000000268
191.733 0.23329999999999984
192.052 0.26670000000000016
192.371 0.28330000000000055
192.69 0.28330000000000055
193.009 0.26670000000000016
193.328 0.11670000000000158
193.647 0.23329999999999984
193.966 0.33330000000000126
194.285 0.216700000000003
194.602 0.28330000000000055
194.92 0.25
195.239 0.20000000000000284
195.558 0.216700000000003
195.877 0.11670000000000158
196.196 0.11670000000000158
196.515 0.23329999999999984
196.834 0.3000000000000007
197.153 0.216700000000003
197.471 0.15000000000000213
197.79 0.15000000000000213
198.109 0.20000000000000284
198.428 0.3000000000000007
198.747 0.18330000000000268
199.065 0.26670000000000016
199.382 0.13330000000000197
199.701 0.10000000000000142
200.02 0.23329999999999984
200.338 0.383300000000002
200.657 0.3000000000000007
200.976 0.3000000000000007
201.295 0.20000000000000284
201.613 0.20000000000000284
201.932 0.13330000000000197
202.251 0.23329999999999984
202.567 0.23329999999999984
202.886 0.216700000000003
203.204 0.25
203.523 0.20000000000000284
203.842 0.15000000000000213
204.16 0.25
204.479 0.1667000000000023
204.797 0.23329999999999984
205.114 0.11670000000000158
205.433 0.3000000000000007
205.751 0.3500000000000014
206.07 0.15000000000000213
206.388 0.26670000000000016
206.707 0.26670000000000016
207.025 0.31670000000000087
207.342 0.25
207.66 0.20000000000000284
207.979 0.26670000000000016
208.297 0.28330000000000055
208.615 0.31670000000000087
208.934 0.26670000000000016
209.25 0.26670000000000016
209.569 0.25
209.887 0.18330000000000268
210.205 0.23329999999999984
210.524 0.18330000000000268
210.842 0.3000000000000007
211.158 0.23329999999999984
211.477 0.216700000000003
211.795 0.25
212.113 0.28330000000000055
212.432 0.23329999999999984
212.75 0.31670000000000087
213.066 0.1667000000000023
213.385 0.3000000000000007
213.703 0.26670000000000016
214.021 0.33330000000000126
214.339 0.26670000000000016
214.656 0.20000000000000284
214.974 0.383300000000002
215.292 0.25
215.61 0.1667000000000023
215.926 0.26670000000000016
216.245 0.33330000000000126
216.563 0.23329999999999984
216.881 0.28330000000000055
217.199 0.28330000000000055
217.515 0.26670000000000016
217.833 0.33330000000000126
218.151 0.26670000000000016
218.469 0.1667000000000023
218.785 0.31670000000000087
219.104 0.33330000000000126
219.422 0.28330000000000055
219.74 0.4333000000000027
220.056 0.18330000000000268
220.374 0.26670000000000016
220.692 0.3000000000000007
221.01 0.3500000000000014
221.326 0.33330000000000126
221.644 0.26670000000000016
221.962 0.23329999999999984
222.28 0.3500000000000014
222.596 0.216700000000003
222.914 0.3000000000000007
223.232 0.23329999999999984
223.547 0.33330000000000126
223.865 0.28330000000000055
224.183 0.216700000000003
224.501 0.28330000000000055
224.817 0.3000000000000007
225.135 0.26670000000000016
225.453 0.31670000000000087
225.768 0.3000000000000007
226.086 0.25
226.404 0.1667000000000023
226.722 0.20000000000000284
227.038 0.28330000000000055
227.355 0.23329999999999984
227.673 0.33330000000000126
227.989 0.15000000000000213
228.307 0.20000000000000284
228.625 0.33330000000000126
228.94 0.20000000000000284
229.258 0.23329999999999984
229.576 0.20000000000000284
229.891 0.31670000000000087
230.209 0.28330000000000055
230.527 0.31670000000000087
230.842 0.3500000000000014
231.16 0.25
231.478 0.18330000000000268
231.793 0.28330000000000055
232.111 0.18330000000000268
232.428 0.1667000000000023
232.744 0.3000000000000007
233.062 0.4167000000000023
233.379 0.33330000000000126
233.695 0.216700000000003
234.012 0.28330000000000055
234.33 0.31670000000000087
234.645 0.23329999999999984
234.963 0.28330000000000055
235.278 0.216700000000003
235.596 0.28330000000000055
235.913 0.23329999999999984
236.229 0.28330000000000055
236.546 0.20000000000000284
236.864 0.216700000000003
237.179 0.383300000000002
237.497 0.3000000000000007
237.812 0.33330000000000126
238.129 0.25
238.447 0.216700000000003
238.762 0.23329999999999984
239.08 0.26670000000000016
239.395 0.3667000000000016
239.712 0.383300000000002
240.03 0.48329999999999984
240.345 0.31670000000000087
240.662 0.1667000000000023
240.978 0.3500000000000014
241.295 0.26670000000000016
241.61 0.3667000000000016
241.927 0.25
242.245 0.383300000000002
242.56 0.40000000000000213
242.877 0.20000000000000284
243.192 0.45000000000000284
243.51 0.3667000000000016
243.825 0.25
244.142 0.31670000000000087
244.459 0.383300000000002
244.774 0.28330000000000055
245.092 0.26670000000000016
245.407 0.28330000000000055
245.724 0.3500000000000014
246.039 0.216700000000003
246.356 0.383300000000002
246.671 0.25
246.988 0.26670000000000016
247.303 0.3500000000000014
247.62 0.31670000000000087
247.938 0.28330000000000055
248.253 0.3500000000000014
248.57 0.216700000000003
248.885 0.13330000000000197
249.202 0.20000000000000284
249.517 0.25
249.834 0.3000000000000007
250.149 0.28330000000000055
250.466 0.216700000000003
250.781 0.33330000000000126
251.098 0.383300000000002
251.412 0.26670000000000016
251.729 0.28330000000000055
252.044 0.33330000000000126
252.361 0.23329999999999984
252.676 0.383300000000002
252.993 0.20000000000000284
253.308 0.25
253.625 0.20000000000000284
253.94 0.15000000000000213
254.256 0.3667000000000016
254.571 0.18330000000000268
254.888 0.31670000000000087
255.203 0.26670000000000016
255.518 0.3000000000000007
255.834 0.3000000000000007
256.149 0.3667000000000016
256.466 0.216700000000003
256.781 0.23329999999999984
257.097 0.25
257.412 0.25
257.729 0.15000000000000213
258.044 0.28330000000000055
258.36 0.26670000000000016
258.675 0.25
258.99 0.31670000000000087
259.306 0.26670000000000016
259.621 0.26670000000000016
259.938 0.28330000000000055
260.252 0.13330000000000197
260.569 0.26670000000000016
260.883 0.3000000000000007
261.198 0.31670000000000087
261.515 0.33330000000000126
261.829 0.3000000000000007
262.146 0.26670000000000016
262.46 0.20000000000000284
262.775 0.3000000000000007
263.091 0.216700000000003
263.406 0.383300000000002
263.723 0.23329999999999984
264.037 0.25
264.354 0.23329999999999984
264.668 0.20000000000000284
264.982 0.25
265.299 0.23329999999999984
265.613 0.23329999999999984
265.928 0.26670000000000016
266.244 0.20000000000000284
266.559 0.25
266.875 0.25
267.189 0.25
267.504 0.31670000000000087
267.82 0.31670000000000087
268.134 0.20000000000000284
268.449 0.11670000000000158
268.765 0.28330000000000055
269.079 0.216700000000003
269.394 0.18330000000000268
269.71 0.25
270.024 0.31670000000000087
270.341 0.20000000000000284
270.655 0.18330000000000268
270.969 0.25
271.286 0.23329999999999984
271.6 0.3500000000000014
271.914 0.20000000000000284
272.23 0.26670000000000016
272.544 0.26670000000000016
272.859 0.28330000000000055
273.175 0.20000000000000284
273.489 0.31670000000000087
273.803 0.1667000000000023
274.119 0.383300000000002
274.433 0.216700000000003
274.747 0.26670000000000016
275.062 0.3667000000000016
275.378 0.26670000000000016
275.692 0.25
276.006 0.3000000000000007
276.322 0.26670000000000016
276.636 0.26670000000000016
276.95 0.33330000000000126
277.266 0.23329999999999984
277.58 0.28330000000000055
277.894 0.28330000000000055
278.208 0.25
278.524 0.26670000000000016
278.838 0.28330000000000055
279.152 0.4333000000000027
279.468 0.3000000000000007
279.782 0.28330000000000055
280.096 0.33330000000000126
280.41 0.33330000000000126
280.726 0.23329999999999984
281.04 0.28330000000000055
281.354 0.26670000000000016
281.668 0.3000000000000007
281.983 0.383300000000002
282.297 0.26670000000000016
282.611 0.26670000000000016
282.925 0.18330000000000268
283.241 0.33330000000000126
283.555 0.28330000000000055
283.868 0.23329999999999984
284.182 0.33330000000000126
284.498 0.33330000000000126
284.812 0.31670000000000087
285.126 0.20000000000000284
285.439 0.3000000000000007
285.753 0.26670000000000016
286.069 0.23329999999999984
286.383 0.33330000000000126
286.696 0.10000000000000142
287.01 0.26670000000000016
287.326 0.28330000000000055
287.639 0.25
287.953 0.3000000000000007
288.267 0.06670000000000087
288.58 0.3500000000000014
288.896 0.33330000000000126
289.21 0.31670000000000087
289.523 0.31670000000000087
289.837 0.25
290.15 0.216700000000003
290.466 0.26670000000000016
290.78 0.23329999999999984
291.093 0.216700000000003
291.407 0.26670000000000016
291.72 0.26670000000000016
292.034 0.3000000000000007
292.349 0.3667000000000016
292.663 0.28330000000000055
292.976 0.26670000000000016
293.29 0.15000000000000213
293.603 0.25
293.917 0.20000000000000284
294.232 0.28330000000000055
294.546 0.18330000000000268
294.859 0.33330000000000126
295.172 0.25
295.486 0.3667000000000016
295.799 0.25
296.113 0.3000000000000007
296.428 0.216700000000003
296.741 0.20000000000000284
297.055 0.23329999999999984
297.368 0.3000000000000007
297.681 0.20000000000000284
297.995 0.26670000000000016
298.308 0.15000000000000213
298.621 0.3000000000000007
298.937 0.28330000000000055
299.25 0.216700000000003
299.563 0.31670000000000087
299.876 0.11670000000000158
300.19 0.4167000000000023
300.503 0.28330000000000055
300.816 0.31670000000000087
301.129 0.3000000000000007
301.442 0.15000000000000213
301.756 0.25
302.071 0.3000000000000007
302.384 0.31670000000000087
302.697 0.33330000000000126
303.01 0.26670000000000016
303.323 0.28330000000000055
303.637 0.3000000000000007
303.95 0.28330000000000055
304.263 0.23329999999999984
304.576 0.1667000000000023
304.889 0.33330000000000126
305.202 0.31670000000000087
305.515 0.28330000000000055
305.828 0.28330000000000055
306.141 0.20000000000000284
306.456 0.3500000000000014
306.769 0.23329999999999984
307.082 0.26670000000000016
307.395 0.40000000000000213
307.708 0.26670000000000016
308.021 0.25
308.334 0.216700000000003
308.647 0.216700000000003
308.96 0.28330000000000055
309.273 0.13330000000000197
309.586 0.3500000000000014
309.899 0.3667000000000016
310.212 0.216700000000003
310.525 0.31670000000000087
310.838 0.3000000000000007
311.15 0.40000000000000213
311.463 0.20000000000000284
311.776 0.3000000000000007
312.089 0.3000000000000007
312.402 0.31670000000000087
312.715 0.3000000000000007
313.027 0.1667000000000023
313.34 0.3000000000000007
313.653 0.3500000000000014
313.966 0.48329999999999984
314.278 0.4167000000000023
314.591 0.25
314.904 0.31670000000000087
315.217 0.31670000000000087
315.529 0.28330000000000055
315.842 0.216700000000003
316.155 0.33330000000000126
316.467 0.3000000000000007
316.78 0.33330000000000126
317.093 0.23329999999999984
317.405 0.33330000000000126
317.718 0.25
318.031 0.23329999999999984
318.343 0.28330000000000055
318.656 0.20000000000000284
318.969 0.23329999999999984
319.281 0.1667000000000023
319.592 0.23329999999999984
319.904 0.4167000000000023
320.217 0.33330000000000126
320.529 0.383300000000002
320.842 0.3000000000000007
321.154 0.23329999999999984
321.467 0.18330000000000268
321.779 0.33330000000000126
322.092 0.33330000000000126
322.404 0.28330000000000055
322.717 0.3000000000000007
323.029 0.3667000000000016
323.342 0.28330000000000055
323.654 0.40000000000000213
323.965 0.25
324.277 0.26670000000000016
324.589 0.26670000000000016
324.902 0.3000000000000007
325.214 0.4167000000000023
325.527 0.3000000000000007
325.839 0.3667000000000016
326.151 0.3000000000000007
326.464 0.3000000000000007
326.776 0.4333000000000027
327.086 0.25
327.399 0.383300000000002
327.711 0.3500000000000014
328.023 0.3500000000000014
328.335 0.33330000000000126
328.648 0.4333000000000027
328.96 0.5167000000000002
329.27 0.40000000000000213
329.582 0.26670000000000016
329.895 0.4167000000000023
330.207 0.4333000000000027
330.519 0.4167000000000023
330.831 0.48329999999999984
331.143 0.3500000000000014
331.454 0.25
331.766 0.466700000000003
332.078 0.5333000000000006
332.39 0.466700000000003
332.702 0.33330000000000126
333.014 0.5667000000000009
333.326 0.3000000000000007
333.636 0.466700000000003
333.948 0.3667000000000016
334.261 0.3500000000000014
334.573 0.6167000000000016
334.885 0.3500000000000014
335.195 0.4333000000000027
335.507 0.33330000000000126
335.819 0.3500000000000014
336.131 0.4333000000000027
336.443 0.383300000000002
336.753 0.31670000000000087
337.065 0.383300000000002
337.377 0.40000000000000213
337.689 0.40000000000000213
338.001 0.28330000000000055
338.31 0.3667000000000016
338.622 0.28330000000000055
338.934 0.48329999999999984
339.246 0.33330000000000126
339.558 0.33330000000000126
339.868 0.3500000000000014
340.18 0.3667000000000016
340.492 0.25
340.804 0.3667000000000016
341.113 0.3500000000000014
341.425 0.40000000000000213
341.737 0.28330000000000055
342.049 0.26670000000000016
342.361 0.4167000000000023
342.67 0.33330000000000126
342.982 0.33330000000000126
343.294 0.33330000000000126
343.606 0.48329999999999984
343.915 0.5167000000000002
344.227 0.4333000000000027
344.539 0.45000000000000284
344.849 0.466700000000003
345.16 0.40000000000000213
345.472 0.383300000000002
345.784 0.3667000000000016
346.093 0.4333000000000027
346.405 0.4167000000000023
346.717 0.5667000000000009
347.028 0.4167000000000023
347.338 0.45000000000000284
347.649 0.26670000000000016
347.961 0.466700000000003
348.271 0.383300000000002
348.582 0.4167000000000023
348.894 0.3500000000000014
349.205 0.3500000000000014
349.515 0.31670000000000087
349.826 0.4167000000000023
350.138 0.31670000000000087
350.447 0.28330000000000055
350.759 0.45000000000000284
351.07 0.3000000000000007
351.38 0.3500000000000014
351.691 0.4333000000000027
352.003 0.3000000000000007
352.312 0.33330000000000126
352.624 0.3500000000000014
352.935 0.33330000000000126
353.245 0.28330000000000055
353.556 0.3667000000000016
353.867 0.40000000000000213
354.177 0.4167000000000023
354.488 0.3667000000000016
354.799 0.3000000000000007
355.109 0.4167000000000023
355.42 0.31670000000000087
355.732 0.31670000000000087
356.041 0.4167000000000023
356.352 0.3667000000000016
356.663 0.3500000000000014
356.973 0.40000000000000213
357.284 0.4333000000000027
357.593 0.5
357.905 0.3667000000000016
358.216 0.26670000000000016
358.525 0.3667000000000016
358.836 0.45000000000000284
359.147 0.4167000000000023
359.457 0.45000000000000284
359.768 0.33330000000000126
360.077 0.4333000000000027
360.388 0.45000000000000284
360.699 0.31670000000000087
361.008 0.3000000000000007
361.32 0.3500000000000014
361.629 0.33330000000000126
361.94 0.5
362.251 0.383300000000002
362.56 0.4333000000000027
362.871 0.3500000000000014
363.18 0.3667000000000016
363.491 0.4167000000000023
363.8 0.40000000000000213
364.111 0.4333000000000027
364.422 0.5167000000000002
364.731 0.25
365.042 0.45000000000000284
365.351 0.31670000000000087
365.662 0.33330000000000126
365.971 0.4167000000000023
366.282 0.3000000000000007
366.593 0.4167000000000023
366.902 0.31670000000000087
367.213 0.4167000000000023
367.522 0.45000000000000284
367.833 0.40000000000000213
368.142 0.33330000000000126
368.453 0.33330000000000126
368.762 0.3000000000000007
369.073 0.4167000000000023
369.381 0.3500000000000014
369.692 0.4333000000000027
370.001 0.45000000000000284
370.312 0.40000000000000213
370.623 0.5
370.932 0.48329999999999984
371.242 0.3000000000000007
371.551 0.4333000000000027
371.862 0.383300000000002
372.171 0.383300000000002
372.482 0.40000000000000213
372.79 0.3667000000000016
373.101 0.33330000000000126
373.41 0.31670000000000087
373.721 0.383300000000002
374.029 0.26670000000000016
374.34 0.5333000000000006
374.649 0.25
374.959 0.40000000000000213
375.268 0.33330000000000126
375.577 0.3667000000000016
375.887 0.4167000000000023
376.196 0.466700000000003
376.506 0.3000000000000007
376.815 0.4167000000000023
377.126 0.4167000000000023
377.434 0.3667000000000016
377.745 0.28330000000000055
378.053 0.45000000000000284
378.364 0.31670000000000087
378.672 0.40000000000000213
378.983 0.40000000000000213
379.292 0.45000000000000284
379.6 0.3667000000000016
379.911 0.5333000000000006
380.219 0.31670000000000087
380.53 0.48329999999999984
380.838 0.23329999999999984
381.148 0.33330000000000126
381.457 0.48329999999999984
381.767 0.3667000000000016
382.076 0.3667000000000016
382.384 0.28330000000000055
382.695 0.33330000000000126
383.003 0.3000000000000007
383.313 0.23329999999999984
383.622 0.45000000000000284
383.93 0.33330000000000126
384.24 0.31670000000000087
384.549 0.383300000000002
384.859 0.45000000000000284
385.167 0.45000000000000284
385.476 0.26670000000000016
385.786 0.383300000000002
386.094 0.466700000000003
386.405 0.5167000000000002
386.713 0.45000000000000284
387.021 0.45000000000000284
387.331 0.3667000000000016
387.64 0.40000000000000213
387.948 0.4167000000000023
388.258 0.4167000000000023
388.566 0.3667000000000016
388.877 0.4167000000000023
389.185 0.383300000000002
389.493 0.3667000000000016
389.803 0.5
390.111 0.383300000000002
390.419 0.4333000000000027
390.729 0.33330000000000126
391.038 0.466700000000003
391.346 0.466700000000003
391.656 0.383300000000002
391.964 0.5167000000000002
392.272 0.4333000000000027
392.582 0.33330000000000126
392.89 0.4167000000000023
393.198 0.4167000000000023
393.508 0.45000000000000284
393.816 0.28330000000000055
394.124 0.3000000000000007
394.434 0.48329999999999984
394.742 0.4167000000000023
395.05 0.5333000000000006
395.36 0.31670000000000087
395.668 0.441426864405539
395.976 0.44862744267259913
396.286 0.4453593767156505
396.594 0.45013672994407017
396.902 0.4451459993297817
397.21 0.44131490551077945
397.52 0.44071391734267706
397.828 0.48329999999999984
398.135 0.466700000000003
398.445 0.45000000000000284
398.753 0.383300000000002
399.061 0.45000000000000284
399.369 0.383300000000002
399.679 0.466700000000003
399.987 0.4333000000000027
400.294 0.3667000000000016
400.604 0.466700000000003
400.912 0.3667000000000016
401.22 0.383300000000002
401.527 0.4167000000000023
401.837 0.6000000000000014
402.145 0.45000000000000284
402.453 0.4333000000000027
402.76 0.3000000000000007
403.07 0.45000000000000284
403.378 0.5667000000000009
403.686 0.40000000000000213
403.993 0.40000000000000213
404.303 0.383300000000002
404.611 0.5500000000000007
404.918 0.40000000000000213
405.226 0.5
405.533 0.5500000000000007
405.843 0.5167000000000002
406.151 0.5167000000000002
406.458 0.3500000000000014
406.766 0.3667000000000016
407.076 0.466700000000003
407.383 0.45000000000000284
407.691 0.4167000000000023
407.998 0.4167000000000023
408.306 0.5167000000000002
408.615 0.466700000000003
408.923 0.5333000000000006
409.23 0.4333000000000027
409.538 0.466700000000003
409.845 0.5167000000000002
410.153 0.5833000000000013
410.462 0.5833000000000013
410.77 0.5167000000000002
411.077 0.5500000000000007
411.384 0.48329999999999984
411.692 0.5167000000000002
412.001 0.6000000000000014
412.309 0.466700000000003
412.616 0.6833000000000027
412.923 0.6833000000000027
413.231 0.6167000000000016
413.538 0.75
413.845 0.7667000000000002
414.155 0.716700000000003
414.462 0.6833000000000027
414.769 0.7000000000000028
415.077 0.7000000000000028
415.384 0.6167000000000016
415.691 0.883300000000002
415.999 0.7667000000000002
416.308 0.8500000000000014
416.615 0.8500000000000014
416.922 0.7667000000000002
417.23 0.8667000000000016
417.537 0.9333000000000027
417.844 1.2000000000000028
418.151 1.25
418.458 1.1167000000000016
418.768 1.0
419.075 1.133300000000002
419.382 1.133300000000002
419.689 1.3167000000000009
419.996 1.216700000000003
420.303 1.383300000000002
420.61 1.466700000000003
420.918 1.4500000000000028
421.225 1.5167000000000002
421.532 1.383300000000002
421.841 1.633300000000002
422.148 1.4832999999999998
422.455 1.716700000000003
422.762 1.3167000000000009
423.069 1.4832999999999998
423.376 1.6500000000000021
423.683 1.5
423.99 1.6667000000000023
424.297 1.4500000000000028
424.604 1.6000000000000014
424.911 1.5333000000000006
425.218 1.6833000000000027
425.525 1.5833000000000013
425.832 1.383300000000002
426.139 1.383300000000002
426.446 1.3667000000000016
426.753 1.4333000000000027
427.061 1.2332999999999998
427.368 1.216700000000003
427.675 1.3333000000000013
427.982 1.1833000000000027
428.289 1.0833000000000013
428.596 1.0500000000000007
428.903 0.966700000000003
429.209 0.966700000000003
429.516 1.0667000000000009
429.823 1.0833000000000013
430.13 1.2332999999999998
430.437 0.9832999999999998
430.743 0.8500000000000014
431.05 1.0833000000000013
431.357 1.0167000000000002
431.664 0.9000000000000021
431.97 0.8667000000000016
432.277 0.883300000000002
432.584 0.8667000000000016
432.891 0.7833000000000006
433.197 0.5833000000000013
433.504 0.8000000000000007
433.811 0.7833000000000006
434.117 0.5500000000000007
434.424 0.8000000000000007
434.731 0.7332999999999998
435.037 0.75
435.344 0.6833000000000027
435.65 0.6500000000000021
435.957 0.6667000000000023
436.262 0.6833000000000027
436.568 0.6500000000000021
436.875 0.8000000000000007
437.181 0.6500000000000021
437.488 0.5833000000000013
437.794 0.6833000000000027
438.101 0.5167000000000002
438.407 0.5667000000000009
438.714 0.5833000000000013
439.02 0.466700000000003
439.327 0.6667000000000023
439.633 0.5833000000000013
439.94 0.6000000000000014
440.246 0.5667000000000009
440.553 0.7000000000000028
440.859 0.6167000000000016
441.163 0.5167000000000002
441.47 0.5
441.776 0.45000000000000284
442.083 0.6833000000000027
442.389 0.633300000000002
442.695 0.6000000000000014
443.002 0.5667000000000009
443.308 0.6000000000000014
443.614 0.48329999999999984
443.921 0.4333000000000027
444.225 0.466700000000003
444.531 0.4167000000000023
444.838 0.75
445.144 0.6167000000000016
445.45 0.6000000000000014
445.757 0.5333000000000006
446.063 0.5667000000000009
446.369 0.633300000000002
446.675 0.466700000000003
446.979 0.45000000000000284
447.286 0.48329999999999984
447.592 0.6667000000000023
447.898 0.5333000000000006
448.204 0.6167000000000016
448.51 0.45000000000000284
448.817 0.5667000000000009
449.121 0.633300000000002
449.427 0.5833000000000013
449.733 0.45000000000000284
450.039 0.6000000000000014
450.345 0.5
450.651 0.5833000000000013
450.955 0.6000000000000014
451.261 0.4167000000000023
451.568 0.633300000000002
451.874 0.5500000000000007
452.18 0.383300000000002
452.486 0.5500000000000007
452.79 0.48329999999999984
453.096 0.5500000000000007
453.402 0.45000000000000284
453.708 0.5500000000000007
454.014 0.3000000000000007
454.318 0.3667000000000016
454.624 0.6167000000000016
454.93 0.5167000000000002
455.236 0.5333000000000006
455.541 0.5333000000000006
455.845 0.6167000000000016
456.151 0.5333000000000006
456.457 0.5667000000000009
456.763 0.6167000000000016
457.067 0.4333000000000027
457.373 0.5667000000000009
457.679 0.40000000000000213
457.985 0.4333000000000027
458.29 0.5333000000000006
458.594 0.45000000000000284
458.9 0.3500000000000014
459.206 0.33330000000000126
459.512 0.5500000000000007
459.815 0.466700000000003
460.121 0.48329999999999984
460.427 0.5500000000000007
460.733 0.383300000000002
461.036 0.40000000000000213
461.342 0.466700000000003
461.648 0.5167000000000002
461.954 0.4333000000000027
462.257 0.633300000000002
462.563 0.33330000000000126
462.869 0.45000000000000284
463.172 0.5500000000000007
463.478 0.6167000000000016
463.784 0.5667000000000009
464.089 0.5333000000000006
464.393 0.4333000000000027
464.699 0.28330000000000055
465.004 0.4333000000000027
465.308 0.4333000000000027
465.613 0.383300000000002
465.919 0.48329999999999984
466.225 0.383300000000002
466.528 0.48329999999999984
466.834 0.48329999999999984
467.139 0.5167000000000002
467.443 0.466700000000003
467.748 0.40000000000000213
468.054 0.45000000000000284
468.357 0.45000000000000284
468.663 0.5333000000000006
468.968 0.4167000000000023
469.272 0.4333000000000027
469.577 0.45000000000000284
469.883 0.40000000000000213
470.186 0.48329999999999984
470.492 0.5167000000000002
470.797 0.5500000000000007
471.1 0.5500000000000007
471.406 0.5167000000000002
471.711 0.4333000000000027
472.014 0.5333000000000006
472.32 0.48329999999999984
472.625 0.5
472.929 0.5333000000000006
473.234 0.5167000000000002
473.539 0.6167000000000016
473.843 0.5833000000000013
474.148 0.5500000000000007
474.451 0.45000000000000284
474.756 0.5833000000000013
475.062 0.6167000000000016
475.365 0.6000000000000014
475.67 0.75
475.973 0.75
476.279 0.6167000000000016
476.584 0.633300000000002
476.887 0.8167000000000009
477.192 0.883300000000002
477.498 0.9167000000000023
477.801 0.9333000000000027
478.106 1.0
478.409 1.0333000000000006
478.714 0.9000000000000021
479.017 1.133300000000002
479.322 0.8333000000000013
479.628 1.0167000000000002
479.931 0.9333000000000027
480.236 0.883300000000002
480.539 0.7833000000000006
480.844 0.9832999999999998
481.147 0.9832999999999998
481.452 0.9333000000000027
481.757 1.0333000000000006
482.06 0.8167000000000009
482.365 0.8500000000000014
482.668 0.7667000000000002
482.973 0.8000000000000007
483.276 1.1667000000000023
483.581 0.633300000000002
483.884 0.6833000000000027
484.189 0.633300000000002
484.494 0.7332999999999998
484.797 0.6167000000000016
485.102 0.6000000000000014
485.405 0.6500000000000021
485.71 0.48329999999999984
486.013 0.5667000000000009
486.318 0.7000000000000028
486.621 0.5167000000000002
486.925 0.40000000000000213
487.228 0.6167000000000016
487.533 0.5500000000000007
487.836 0.5
488.141 0.4167000000000023
488.444 0.6000000000000014
488.748 0.5500000000000007
489.051 0.3667000000000016
489.356 0.48329999999999984
489.659 0.40000000000000213
489.964 0.5333000000000006
490.266 0.45000000000000284
490.571 0.4333000000000027
490.874 0.466700000000003
491.179 0.5167000000000002
491.481 0.5
491.786 0.3500000000000014
492.089 0.48329999999999984
492.393 0.45000000000000284
492.696 0.5667000000000009
493.001 0.4333000000000027
493.303 0.31670000000000087
493.606 0.6667000000000023
493.911 0.48329999999999984
494.213 0.5167000000000002
494.518 0.4333000000000027
494.821 0.5333000000000006
495.125 0.48329999999999984
495.428 0.40000000000000213
495.732 0.3667000000000016
496.035 0.5
496.337 0.40000000000000213
496.642 0.45000000000000284
496.945 0.40000000000000213
497.249 0.48329999999999984
497.552 0.383300000000002
497.856 0.466700000000003
498.159 0.5167000000000002
498.461 0.40000000000000213
498.766 0.5167000000000002
499.068 0.48329999999999984
499.372 0.48329999999999984
499.675 0.40000000000000213
499.977 0.40000000000000213
500.282 0.383300000000002
500.584 0.40000000000000213
500.889 0.4167000000000023
501.191 0.3500000000000014
501.493 0.466700000000003
501.798 0.466700000000003
502.1 0.3667000000000016
502.402 0.40000000000000213
502.707 0.25
503.009 0.3667000000000016
503.314 0.26670000000000016
503.616 0.466700000000003
503.918 0.3667000000000016
504.222 0.28330000000000055
504.525 0.5500000000000007
504.827 0.45000000000000284
505.131 0.33330000000000126
505.433 0.3500000000000014
505.736 0.5500000000000007
506.04 0.31670000000000087
506.342 0.45000000000000284
506.646 0.26670000000000016
506.949 0.466700000000003
507.251 0.31670000000000087
507.555 0.40000000000000213
507.857 0.5
508.159 0.3667000000000016
508.461 0.3667000000000016
508.766 0.5167000000000002
509.068 0.3500000000000014
509.37 0.3500000000000014
509.674 0.45000000000000284
509.976 0.28330000000000055
510.278 0.3500000000000014
510.582 0.3000000000000007
510.884 0.3500000000000014
511.186 0.26670000000000016
511.49 0.3667000000000016
511.792 0.40000000000000213
512.094 0.23329999999999984
512.396 0.33330000000000126
512.701 0.33330000000000126
513.003 0.3000000000000007
513.305 0.40000000000000213
513.609 0.40000000000000213
513.91 0.5167000000000002
514.212 0.4333000000000027
514.514 0.48329999999999984
514.818 0.5333000000000006
515.12 0.3667000000000016
515.422 0.4167000000000023
515.724 0.466700000000003
516.028 0.5167000000000002
516.33 0.3500000000000014
516.632 0.383300000000002
516.934 0.3500000000000014
517.237 0.40000000000000213
517.539 0.28330000000000055
517.841 0.4167000000000023
518.143 0.3667000000000016
518.447 0.3667000000000016
518.749 0.3667000000000016
519.05 0.3000000000000007
519.352 0.45000000000000284
519.656 0.25
519.958 0.3500000000000014
520.26 0.33330000000000126
520.561 0.383300000000002
520.863 0.5
521.167 0.3500000000000014
521.468 0.466700000000003
521.77 0.3500000000000014
522.072 0.40000000000000213
522.376 0.40000000000000213
522.677 0.3500000000000014
522.979 0.5333000000000006
523.281 0.4333000000000027
523.582 0.383300000000002
523.884 0.5500000000000007
524.187 0.4167000000000023
524.489 0.5
524.791 0.383300000000002
525.092 0.45000000000000284
525.394 0.3667000000000016
525.697 0.40000000000000213
525.999 0.466700000000003
526.301 0.383300000000002
526.602 0.3667000000000016
526.904 0.4167000000000023
527.205 0.5333000000000006
527.507 0.48329999999999984
527.81 0.3000000000000007
528.112 0.4333000000000027
528.413 0.28330000000000055
528.715 0.48329999999999984
529.016 0.466700000000003
529.318 0.45000000000000284
529.619 0.4167000000000023
529.922 0.3500000000000014
530.224 0.466700000000003
530.525 0.40000000000000213
530.827 0.5167000000000002
531.128 0.5167000000000002
531.429 0.383300000000002
531.731 0.5167000000000002
532.032 0.383300000000002
532.336 0.466700000000003
532.637 0.5333000000000006
532.938 0.466700000000003
533.24 0.4333000000000027
533.541 0.5667000000000009
533.842 0.3500000000000014
534.143 0.4167000000000023
534.445 0.3500000000000014
534.746 0.383300000000002
535.047 0.5
535.351 0.28330000000000055
535.652 0.45000000000000284
535.953 0.48329999999999984
536.254 0.3500000000000014
536.555 0.5833000000000013
536.857 0.31670000000000087
537.158 0.4333000000000027
537.459 0.466700000000003
537.76 0.5167000000000002
538.061 0.5500000000000007
538.362 0.40000000000000213
538.664 0.5
538.965 0.3500000000000014
539.266 0.466700000000003
539.567 0.48329999999999984
539.868 0.31670000000000087
540.169 0.3500000000000014
540.472 0.45000000000000284
540.773 0.4167000000000023
541.074 0.3667000000000016
541.375 0.45000000000000284
541.677 0.5333000000000006
541.978 0.45000000000000284
542.279 0.383300000000002
542.58 0.383300000000002
542.881 0.33330000000000126
543.182 0.633300000000002
543.483 0.3500000000000014
543.784 0.466700000000003
544.085 0.48329999999999984
544.385 0.5167000000000002
544.686 0.5
544.987 0.466700000000003
545.288 0.5
545.589 0.48329999999999984
545.89 0.5500000000000007
546.191 0.48329999999999984
546.492 0.466700000000003
546.793 0.5500000000000007
547.094 0.40000000000000213
547.394 0.26670000000000016
547.695 0.5167000000000002
547.996 0.45000000000000284
548.297 0.33330000000000126
548.596 0.4167000000000023
548.897 0.5500000000000007
549.197 0.4333000000000027
549.498 0.5167000000000002
549.799 0.5333000000000006
550.1 0.633300000000002
550.4 0.6000000000000014
550.701 0.48329999999999984
551.002 0.5833000000000013
551.303 0.48329999999999984
551.603 0.5833000000000013
551.904 0.6167000000000016
552.205 0.5
552.505 0.48329999999999984
552.806 0.716700000000003
553.107 0.6833000000000027
553.407 0.5500000000000007
553.706 0.6667000000000023
554.007 0.6167000000000016
554.307 0.5833000000000013
554.608 0.5667000000000009
554.909 0.633300000000002
555.209 0.6500000000000021
555.51 0.5167000000000002
555.81 0.8167000000000009
556.111 0.6000000000000014
556.411 0.6833000000000027
556.71 0.7332999999999998
557.01 0.5500000000000007
557.311 0.6833000000000027
557.612 0.5500000000000007
557.912 0.6000000000000014
558.213 0.8167000000000009
558.513 0.5667000000000009
558.813 0.4333000000000027
559.112 0.5667000000000009
559.412 0.5
559.713 0.716700000000003
560.013 0.6000000000000014
560.314 0.7000000000000028
560.614 0.3667000000000016
560.914 0.5500000000000007
561.213 0.633300000000002
561.513 0.48329999999999984
561.814 0.5167000000000002
562.114 0.4167000000000023
562.414 0.466700000000003
562.715 0.466700000000003
563.015 0.40000000000000213
563.313 0.45000000000000284
563.614 0.45000000000000284
563.914 0.5167000000000002
564.214 0.45000000000000284
564.515 0.40000000000000213
564.813 0.5167000000000002
565.113 0.33330000000000126
565.413 0.48329999999999984
565.714 0.4333000000000027
566.014 0.466700000000003
566.312 0.5667000000000009
566.612 0.4333000000000027
566.912 0.40000000000000213
567.213 0.383300000000002
567.513 0.48329999999999984
567.811 0.3667000000000016
568.111 0.31670000000000087
568.411 0.5500000000000007
568.712 0.4167000000000023
569.012 0.5
569.31 0.31670000000000087
569.61 0.5167000000000002
569.91 0.45000000000000284
570.21 0.466700000000003
570.508 0.5167000000000002
570.808 0.6167000000000016
571.108 0.3500000000000014
571.408 0.4167000000000023
571.706 0.5667000000000009
572.006 0.48329999999999984
572.306 0.383300000000002
572.607 0.5667000000000009
572.904 0.466700000000003
573.204 0.6000000000000014
573.505 0.4333000000000027
573.805 0.5
574.102 0.40000000000000213
574.402 0.466700000000003
574.702 0.4333000000000027
575.002 0.48329999999999984
575.3 0.383300000000002
575.6 0.40000000000000213
575.9 0.45000000000000284
576.198 0.48329999999999984
576.498 0.5333000000000006
576.798 0.48329999999999984
577.098 0.4167000000000023
577.395 0.4167000000000023
577.695 0.4333000000000027
577.995 0.5
578.293 0.5
578.593 0.3667000000000016
578.893 0.4333000000000027
579.19 0.4167000000000023
579.49 0.33330000000000126
579.79 0.40000000000000213
580.088 0.3667000000000016
580.387 0.25
580.687 0.5500000000000007
580.985 0.45000000000000284
581.285 0.383300000000002
581.584 0.45000000000000284
581.882 0.466700000000003
582.182 0.3500000000000014
582.482 0.383300000000002
582.779 0.5
583.079 0.48329999999999984
583.378 0.4333000000000027
583.676 0.3000000000000007
583.976 0.33330000000000126
584.275 0.5
584.573 0.466700000000003
584.873 0.33330000000000126
585.17 0.383300000000002
585.47 0.40000000000000213
585.769 0.5833000000000013
586.067 0.3667000000000016
586.367 0.4167000000000023
586.666 0.5667000000000009
586.964 0.33330000000000126
587.263 0.383300000000002
587.561 0.466700000000003
587.86 0.383300000000002
588.16 0.45000000000000284
588.457 0.4333000000000027
588.757 0.5500000000000007
589.054 0.40000000000000213
589.354 0.5
589.653 0.45000000000000284
589.951 0.5167000000000002
590.25 0.466700000000003
590.547 0.4167000000000023
590.847 0.4333000000000027
591.144 0.48329999999999984
591.444 0.48329999999999984
591.743 0.383300000000002
592.04 0.48329999999999984
592.34 0.4333000000000027
592.637 0.40000000000000213
592.936 0.4167000000000023
593.234 0.33330000000000126
593.533 0.4167000000000023
593.832 0.40000000000000213
594.13 0.26670000000000016
594.429 0.4333000000000027
594.726 0.40000000000000213
595.026 0.4333000000000027
595.323 0.4167000000000023
595.622 0.45000000000000284
595.919 0.48329999999999984
596.219 0.3667000000000016
596.516 0.466700000000003
596.815 0.3500000000000014
597.112 0.383300000000002
597.411 0.5500000000000007
597.709 0.3667000000000016
598.008 0.40000000000000213
598.305 0.4333000000000027
598.604 0.3667000000000016
598.901 0.5167000000000002
599.2 0.4333000000000027
599.497 0.40000000000000213
599.797 0.3500000000000014
600.094 0.4333000000000027
600.393 0.5333000000000006
600.69 0.25
600.989 0.40000000000000213
601.286 0.3667000000000016
601.585 0.3667000000000016
601.882 0.45000000000000284
602.181 0.4167000000000023
602.478 0.4167000000000023
602.777 0.3667000000000016
603.074 0.48329999999999984
603.373 0.31670000000000087
603.67 0.5
603.969 0.5500000000000007
604.266 0.45000000000000284
604.563 0.3667000000000016
604.862 0.6167000000000016
605.159 0.45000000000000284
605.458 0.5
605.755 0.5500000000000007
606.054 0.5167000000000002
606.351 0.40000000000000213
606.65 0.5833000000000013
606.946 0.5
607.243 0.31670000000000087
607.542 0.4333000000000027
607.839 0.6167000000000016
608.138 0.4167000000000023
608.435 0.633300000000002
608.732 0.5667000000000009
609.03 0.5667000000000009
609.327 0.5167000000000002
609.626 0.5833000000000013
609.923 0.5667000000000009
610.22 0.5167000000000002
610.518 0.6000000000000014
610.815 0.5667000000000009
611.114 0.5333000000000006
611.411 0.5833000000000013
611.707 0.5333000000000006
612.006 0.6000000000000014
612.303 0.5833000000000013
612.601 0.48329999999999984
612.898 0.45000000000000284
613.195 0.6167000000000016
613.493 0.5667000000000009
613.79 0.5500000000000007
614.087 0.5500000000000007
614.385 0.7000000000000028
614.682 0.45000000000000284
614.979 0.6833000000000027
615.277 0.6833000000000027
615.574 0.466700000000003
615.87 0.5833000000000013
616.169 0.4167000000000023
616.466 0.6500000000000021
616.764 0.5667000000000009
617.061 0.5333000000000006
617.357 0.466700000000003
617.656 0.5167000000000002
617.952 0.6000000000000014
618.249 0.5667000000000009
618.545 0.466700000000003
618.844 0.5167000000000002
619.14 0.5667000000000009
619.437 0.5667000000000009
619.735 0.466700000000003
620.032 0.5500000000000007
620.328 0.48329999999999984
620.626 0.4333000000000027
620.923 0.5333000000000006
621.219 0.4333000000000027
621.518 0.5833000000000013
621.814 0.5500000000000007
622.11 0.40000000000000213
622.407 0.5667000000000009
622.705 0.4167000000000023
623.002 0.6500000000000021
623.298 0.48329999999999984
623.594 0.45000000000000284
623.893 0.5667000000000009
624.189 0.5
624.485 0.5500000000000007
624.784 0.4333000000000027
625.08 0.33330000000000126
625.376 0.5
625.672 0.383300000000002
625.971 0.48329999999999984
626.267 0.383300000000002
626.563 0.466700000000003
626.859 0.40000000000000213
627.158 0.4167000000000023
627.454 0.48329999999999984
627.75 0.383300000000002
628.046 0.40000000000000213
628.342 0.45000000000000284
628.641 0.3000000000000007
628.937 0.5333000000000006
629.233 0.5667000000000009
629.529 0.5167000000000002
629.827 0.48329999999999984
630.123 0.383300000000002
630.419 0.4333000000000027
630.715 0.4333000000000027
631.011 0.45000000000000284
631.31 0.3667000000000016
631.606 0.5167000000000002
631.902 0.48329999999999984
632.198 0.466700000000003
632.494 0.5167000000000002
632.792 0.4333000000000027
633.088 0.5333000000000006
633.384 0.5167000000000002
633.68 0.31670000000000087
633.976 0.40000000000000213
634.272 0.26670000000000016
634.57 0.3667000000000016
634.866 0.5167000000000002
635.162 0.4167000000000023
635.458 0.4167000000000023
635.754 0.4167000000000023
636.05 0.5333000000000006
636.347 0.6167000000000016
636.643 0.5500000000000007
636.939 0.4333000000000027
637.235 0.6000000000000014
637.531 0.3667000000000016
637.827 0.5333000000000006
638.123 0.4333000000000027
638.421 0.31670000000000087
638.716 0.5500000000000007
639.012 0.383300000000002
639.308 0.5167000000000002
639.604 0.5333000000000006
639.9 0.466700000000003
640.195 0.5833000000000013
640.491 0.40000000000000213
640.789 0.5667000000000009
641.085 0.466700000000003
641.381 0.5667000000000009
641.676 0.4333000000000027
641.972 0.5167000000000002
642.268 0.3000000000000007
642.563 0.5167000000000002
642.859 0.4333000000000027
643.155 0.5
643.451 0.5333000000000006
643.746 0.5667000000000009
644.044 0.40000000000000213
644.34 0.3667000000000016
644.635 0.48329999999999984
644.931 0.45000000000000284
645.227 0.5167000000000002
645.522 0.5167000000000002
645.818 0.466700000000003
646.113 0.45000000000000284
646.409 0.466700000000003
646.704 0.45000000000000284
647.0 0.4333000000000027
647.296 0.40000000000000213
647.591 0.5
647.887 0.6000000000000014
648.182 0.466700000000003
648.478 0.5667000000000009
648.773 0.6500000000000021
649.069 0.48329999999999984
649.366 0.45000000000000284
649.662 0.48329999999999984
649.957 0.3667000000000016
650.253 0.48329999999999984
650.548 0.5167000000000002
650.844 0.6167000000000016
651.139 0.5667000000000009
651.434 0.28330000000000055
651.73 0.5333000000000006
652.025 0.5167000000000002
652.321 0.5667000000000009
652.616 0.6167000000000016
652.911 0.5667000000000009
653.207 0.5500000000000007
653.502 0.6000000000000014
653.797 0.5500000000000007
654.093 0.5667000000000009
654.388 0.45000000000000284
654.683 0.5333000000000006
654.979 0.7332999999999998
655.274 0.6667000000000023
655.567 0.5500000000000007
655.863 0.5500000000000007
656.158 0.5333000000000006
656.453 0.75
656.748 0.6000000000000014
657.044 0.7332999999999998
657.339 0.6500000000000021
657.634 0.7332999999999998
657.929 0.716700000000003
658.224 0.8500000000000014
658.52 0.6667000000000023
658.815 0.5833000000000013
659.11 0.7833000000000006
659.405 0.9333000000000027
659.7 0.716700000000003
659.995 0.7667000000000002
660.291 0.8167000000000009
660.586 0.8167000000000009
660.879 0.716700000000003
661.174 0.6000000000000014
661.469 0.6500000000000021
661.764 0.6833000000000027
662.059 0.716700000000003
662.354 0.716700000000003
662.649 0.75
662.944 0.7000000000000028
663.239 0.7833000000000006
663.534 0.6833000000000027
663.83 0.5833000000000013
664.122 0.8500000000000014
664.417 0.48329999999999984
664.713 0.6500000000000021
665.008 0.6833000000000027
665.302 0.5500000000000007
665.597 0.5167000000000002
665.892 0.7833000000000006
666.187 0.5833000000000013
666.48 0.6000000000000014
666.775 0.4333000000000027
667.07 0.6667000000000023
667.365 0.6833000000000027
667.66 0.6500000000000021
667.955 0.5333000000000006
668.25 0.6000000000000014
668.542 0.5
668.837 0.48329999999999984
669.132 0.45000000000000284
669.427 0.5833000000000013
669.722 0.5500000000000007
670.017 0.48329999999999984
670.31 0.5333000000000006
670.604 0.5
670.899 0.5167000000000002
671.194 0.4333000000000027
671.489 0.5667000000000009
671.783 0.5167000000000002
672.076 0.6000000000000014
672.371 0.5667000000000009
672.666 0.5167000000000002
672.96 0.4333000000000027
673.255 0.5333000000000006
673.548 0.45000000000000284
673.842 0.4167000000000023
674.137 0.5
674.432 0.45000000000000284
674.727 0.31670000000000087
675.019 0.383300000000002
675.314 0.6167000000000016
675.608 0.6500000000000021
675.903 0.4167000000000023
676.196 0.5500000000000007
676.49 0.5833000000000013
676.785 0.4333000000000027
677.079 0.45000000000000284
677.374 0.5833000000000013
677.667 0.48329999999999984
677.961 0.383300000000002
678.256 0.5167000000000002
678.55 0.3500000000000014
678.843 0.40000000000000213
679.137 0.5
679.432 0.5500000000000007
679.726 0.5333000000000006
680.019 0.3667000000000016
680.313 0.48329999999999984
680.608 0.5
680.902 0.466700000000003
681.195 0.3667000000000016
681.489 0.45000000000000284
681.784 0.23329999999999984
682.076 0.4167000000000023
682.37 0.4333000000000027
682.665 0.45000000000000284
682.959 0.5
683.252 0.4333000000000027
683.546 0.466700000000003
683.84 0.5500000000000007
684.133 0.5167000000000002
684.427 0.48329999999999984
684.721 0.383300000000002
685.014 0.4333000000000027
685.308 0.3500000000000014
685.602 0.4333000000000027
685.895 0.6167000000000016
686.189 0.48329999999999984
686.483 0.26670000000000016
686.778 0.5333000000000006
687.07 0.4167000000000023
687.364 0.5167000000000002
687.658 0.5167000000000002
687.951 0.4167000000000023
688.245 0.40000000000000213
688.537 0.3667000000000016
688.831 0.5167000000000002
689.125 0.33330000000000126
689.418 0.28330000000000055
689.712 0.633300000000002
690.006 0.383300000000002
690.298 0.5500000000000007
690.592 0.28330000000000055
690.886 0.5333000000000006
691.178 0.4333000000000027
691.473 0.5167000000000002
691.767 0.40000000000000213
692.059 0.45000000000000284
692.353 0.4333000000000027
692.645 0.5333000000000006
692.939 0.383300000000002
693.233 0.5167000000000002
693.525 0.40000000000000213
693.819 0.33330000000000126
694.111 0.48329999999999984
694.405 0.5500000000000007
694.699 0.5833000000000013
694.991 0.466700000000003
695.285 0.5333000000000006
695.577 0.45000000000000284
695.871 0.4167000000000023
696.165 0.40000000000000213
696.457 0.5500000000000007
696.751 0.40000000000000213
697.043 0.3500000000000014
697.337 0.3500000000000014
697.629 0.4333000000000027
697.923 0.5500000000000007
698.217 0.5037745577022363
698.509 0.4980531733816278
698.802 0.4990248654802798
699.094 0.4852073823928187
699.388 0.4999932676493941
699.68 0.49262068785638746
699.974 0.49334101672762287
700.266 0.5167000000000002
700.56 0.6167000000000016
700.853 0.5167000000000002
701.145 0.33330000000000126
701.439 0.5167000000000002
701.731 0.45000000000000284
702.025 0.40000000000000213
702.316 0.45000000000000284
702.61 0.383300000000002
702.902 0.45000000000000284
703.196 0.466700000000003
703.487 0.5667000000000009
703.781 0.3500000000000014
704.073 0.4333000000000027
704.367 0.48329999999999984
704.658 0.4333000000000027
704.952 0.5
705.244 0.45000000000000284
705.537 0.33330000000000126
705.829 0.5333000000000006
706.122 0.48329999999999984
706.414 0.31670000000000087
706.708 0.4167000000000023
706.999 0.45000000000000284
707.293 0.3000000000000007
