# Created: 2019-11-28 14:34:52.692450
# rshift intensity
76.1738 0.043340000000000156
76.4989 0.10667000000000026
76.824 0.07667000000000002
77.1491 0.08667000000000025
77.4721 0.04667000000000021
77.7972 0.06667000000000023
78.1223 0.07333999999999996
78.4474 0.09667000000000003
78.7724 0.013340000000000352
79.0975 0.03334000000000037
79.4204 0.07667000000000002
79.7454 0.08000000000000007
80.0704 0.10667000000000026
80.3954 0.1200000000000001
80.7204 0.04667000000000021
81.0454 0.05667
81.3682 0.06000000000000005
81.6931 0.03000000000000025
82.0181 0.0900000000000003
82.343 0.07333999999999996
82.6679 0.03666999999999998
82.9907 0.08000000000000007
83.3156 0.10667000000000026
83.6405 0.09333999999999998
83.9654 0.050000000000000266
84.2903 0.050000000000000266
84.613 0.11334
84.9378 0.09333999999999998
85.2626 0.08000000000000007
85.5875 0.08334000000000019
85.9101 0.11000000000000032
86.2349 0.013340000000000352
86.5597 0.08334000000000019
86.8845 0.06000000000000005
87.2093 0.06667000000000023
87.5319 0.05334000000000039
87.8566 0.08334000000000019
88.1814 0.11000000000000032
88.5061 0.1200000000000001
88.8286 0.05667
89.1533 0.10334000000000021
89.478 0.0900000000000003
89.8027 0.08334000000000019
90.1252 0.10667000000000026
90.4499 0.10667000000000026
90.7745 0.12667000000000028
91.0992 0.09667000000000003
91.4216 0.08000000000000007
91.7462 0.1200000000000001
92.0708 0.13000000000000034
92.3954 0.09333999999999998
92.7179 0.12667000000000028
93.0424 0.11000000000000032
93.367 0.09333999999999998
93.6915 0.10667000000000026
94.0139 0.10667000000000026
94.3384 0.09333999999999998
94.6629 0.07667000000000002
94.9853 0.08667000000000025
95.3098 0.06000000000000005
95.6342 0.07667000000000002
95.9587 0.08000000000000007
96.281 0.09667000000000003
96.6055 0.0
96.9299 0.07667000000000002
97.2522 0.1200000000000001
97.5766 0.08667000000000025
97.901 0.10334000000000021
98.2232 0.06667000000000023
98.5476 0.09333999999999998
98.8719 0.08667000000000025
99.1942 0.11334
99.5185 0.13334000000000001
99.8428 0.13000000000000034
100.165 0.13000000000000034
100.489 0.12667000000000028
100.814 0.03334000000000037
101.136 0.15000000000000036
101.46 0.06667000000000023
101.784 0.11667000000000005
102.106 0.11000000000000032
102.431 0.12334000000000023
102.755 0.08667000000000025
103.077 0.13000000000000034
103.401 0.10667000000000026
103.725 0.11334
104.047 0.11667000000000005
104.372 0.11000000000000032
104.696 0.15334000000000003
105.018 0.11667000000000005
105.342 0.16667000000000032
105.666 0.13000000000000034
105.988 0.13000000000000034
106.312 0.1566700000000001
106.634 0.16000000000000014
106.958 0.11000000000000032
107.282 0.14334000000000024
107.604 0.08334000000000019
107.928 0.13334000000000001
108.252 0.10000000000000009
108.574 0.0900000000000003
108.898 0.07000000000000028
109.22 0.11000000000000032
109.544 0.09333999999999998
109.868 0.0900000000000003
110.19 0.06334000000000017
110.514 0.07667000000000002
110.836 0.0900000000000003
111.159 0.11667000000000005
111.483 0.14000000000000012
111.805 0.13000000000000034
112.129 0.11667000000000005
112.451 0.09333999999999998
112.775 0.09333999999999998
113.096 0.07333999999999996
113.42 0.08000000000000007
113.744 0.10000000000000009
114.066 0.08667000000000025
114.39 0.11000000000000032
114.711 0.07667000000000002
115.035 0.08000000000000007
115.357 0.07667000000000002
115.681 0.11000000000000032
116.004 0.10000000000000009
116.326 0.11000000000000032
116.65 0.08667000000000025
116.971 0.10000000000000009
117.295 0.10000000000000009
117.617 0.11000000000000032
117.94 0.14334000000000024
118.262 0.10000000000000009
118.586 0.11667000000000005
118.907 0.15334000000000003
119.231 0.0900000000000003
119.554 0.09333999999999998
119.876 0.16667000000000032
120.199 0.10000000000000009
120.521 0.09667000000000003
120.845 0.11334
121.166 0.12667000000000028
121.49 0.11000000000000032
121.811 0.10667000000000026
122.135 0.13334000000000001
122.456 0.11667000000000005
122.78 0.10000000000000009
123.101 0.14334000000000024
123.424 0.10667000000000026
123.746 0.1200000000000001
124.069 0.13667000000000007
124.391 0.10334000000000021
124.714 0.1200000000000001
125.035 0.09333999999999998
125.359 0.12667000000000028
125.68 0.12334000000000023
126.004 0.10334000000000021
126.325 0.12334000000000023
126.648 0.16334000000000026
126.97 0.08000000000000007
127.291 0.11334
127.614 0.13667000000000007
127.935 0.10667000000000026
128.259 0.16000000000000014
128.58 0.12667000000000028
128.903 0.18667000000000034
129.224 0.13334000000000001
129.548 0.1466700000000003
129.869 0.11334
130.192 0.12667000000000028
130.513 0.12667000000000028
130.834 0.18334000000000028
131.158 0.08000000000000007
131.479 0.11667000000000005
131.802 0.14334000000000024
132.123 0.09667000000000003
132.446 0.13334000000000001
132.767 0.11000000000000032
133.09 0.08667000000000025
133.411 0.10667000000000026
133.733 0.14000000000000012
134.056 0.10334000000000021
134.377 0.12667000000000028
134.7 0.1466700000000003
135.021 0.13000000000000034
135.342 0.14334000000000024
135.665 0.050000000000000266
135.986 0.15334000000000003
136.309 0.1466700000000003
136.63 0.1200000000000001
136.951 0.11000000000000032
137.274 0.16000000000000014
137.595 0.12667000000000028
137.918 0.12334000000000023
138.238 0.08334000000000019
138.559 0.1200000000000001
138.882 0.1466700000000003
139.203 0.12334000000000023
139.526 0.1200000000000001
139.847 0.13000000000000034
140.168 0.14334000000000024
140.491 0.1200000000000001
140.811 0.1566700000000001
141.132 0.20000000000000018
141.455 0.08667000000000025
141.776 0.15334000000000003
142.097 0.18334000000000028
142.419 0.18000000000000016
142.74 0.20667000000000035
143.061 0.10334000000000021
143.384 0.16334000000000026
143.704 0.17000000000000037
144.027 0.11000000000000032
144.348 0.19334000000000007
144.668 0.14334000000000024
144.991 0.15000000000000036
145.312 0.14000000000000012
145.632 0.11667000000000005
145.955 0.12667000000000028
146.276 0.14334000000000024
146.596 0.11334
146.917 0.14334000000000024
147.24 0.11000000000000032
147.56 0.09667000000000003
147.881 0.1200000000000001
148.203 0.1200000000000001
148.524 0.10667000000000026
148.844 0.11334
149.167 0.12334000000000023
149.487 0.17000000000000037
149.808 0.19334000000000007
150.131 0.1766700000000001
150.451 0.11334
150.771 0.11000000000000032
151.092 0.16000000000000014
151.414 0.1466700000000003
151.735 0.17334000000000005
152.055 0.14334000000000024
152.378 0.07000000000000028
152.698 0.11667000000000005
153.018 0.16000000000000014
153.339 0.17334000000000005
153.661 0.16000000000000014
153.982 0.14334000000000024
154.302 0.1566700000000001
154.622 0.13667000000000007
154.945 0.16334000000000026
155.265 0.16667000000000032
155.585 0.18667000000000034
155.905 0.17000000000000037
156.228 0.18000000000000016
156.548 0.08000000000000007
156.868 0.12334000000000023
157.188 0.20000000000000018
157.511 0.11334
157.831 0.16000000000000014
158.151 0.15334000000000003
158.471 0.17334000000000005
158.794 0.1900000000000004
159.114 0.14334000000000024
159.434 0.18000000000000016
159.754 0.14000000000000012
160.074 0.13334000000000001
160.396 0.1466700000000003
160.717 0.15000000000000036
161.037 0.08667000000000025
161.357 0.1466700000000003
161.679 0.16334000000000026
161.999 0.1766700000000001
162.319 0.17000000000000037
162.639 0.16667000000000032
162.959 0.13000000000000034
163.281 0.17000000000000037
163.601 0.1766700000000001
163.921 0.16000000000000014
164.241 0.13667000000000007
164.561 0.17000000000000037
164.881 0.18000000000000016
165.203 0.21667000000000014
165.523 0.12667000000000028
165.843 0.15334000000000003
166.163 0.16000000000000014
166.483 0.2033400000000003
166.803 0.1900000000000004
167.125 0.23667000000000016
167.445 0.18334000000000028
167.764 0.2033400000000003
168.084 0.1566700000000001
168.404 0.1566700000000001
168.724 0.16667000000000032
169.046 0.16000000000000014
169.366 0.15334000000000003
169.685 0.2200000000000002
170.005 0.14334000000000024
170.325 0.14334000000000024
170.645 0.18667000000000034
170.964 0.13667000000000007
171.286 0.09667000000000003
171.606 0.10334000000000021
171.926 0.12667000000000028
172.245 0.12667000000000028
172.565 0.13334000000000001
172.885 0.1766700000000001
173.204 0.16667000000000032
173.524 0.17000000000000037
173.846 0.1766700000000001
174.166 0.1466700000000003
174.485 0.17334000000000005
174.805 0.17000000000000037
175.124 0.2400000000000002
175.444 0.12334000000000023
175.764 0.18000000000000016
176.083 0.16000000000000014
176.403 0.18667000000000034
176.722 0.13000000000000034
177.044 0.1566700000000001
177.363 0.19667000000000012
177.683 0.20000000000000018
178.002 0.16000000000000014
178.322 0.18334000000000028
178.641 0.14334000000000024
178.961 0.18334000000000028
179.28 0.12667000000000028
179.6 0.16334000000000026
179.919 0.18667000000000034
180.239 0.11667000000000005
180.558 0.13000000000000034
180.877 0.18667000000000034
181.197 0.17334000000000005
181.516 0.18334000000000028
181.838 0.1766700000000001
182.157 0.18334000000000028
182.476 0.16000000000000014
182.796 0.18334000000000028
183.115 0.12667000000000028
183.434 0.17000000000000037
183.754 0.15334000000000003
184.073 0.19667000000000012
184.392 0.16667000000000032
184.712 0.18667000000000034
185.031 0.2033400000000003
185.35 0.1466700000000003
185.669 0.21667000000000014
185.989 0.16667000000000032
186.308 0.18334000000000028
186.627 0.13000000000000034
186.946 0.14334000000000024
187.265 0.18000000000000016
187.585 0.20667000000000035
187.904 0.16667000000000032
188.223 0.1900000000000004
188.542 0.16667000000000032
188.861 0.19667000000000012
189.18 0.14334000000000024
189.499 0.16000000000000014
189.818 0.18000000000000016
190.138 0.15334000000000003
190.457 0.1566700000000001
190.776 0.18334000000000028
191.095 0.18334000000000028
191.414 0.21334000000000009
191.733 0.21334000000000009
192.052 0.21334000000000009
192.371 0.23667000000000016
192.69 0.16000000000000014
193.009 0.23667000000000016
193.328 0.22334000000000032
193.647 0.22667000000000037
193.966 0.20999999999999996
194.285 0.15334000000000003
194.602 0.18000000000000016
194.92 0.19334000000000007
195.239 0.22667000000000037
195.558 0.15000000000000036
195.877 0.16000000000000014
196.196 0.20999999999999996
196.515 0.20667000000000035
196.834 0.15334000000000003
197.153 0.1766700000000001
197.471 0.1900000000000004
197.79 0.17000000000000037
198.109 0.18000000000000016
198.428 0.21667000000000014
198.747 0.18667000000000034
199.065 0.20667000000000035
199.382 0.1766700000000001
199.701 0.18667000000000034
200.02 0.14000000000000012
200.338 0.17000000000000037
200.657 0.18334000000000028
200.976 0.1766700000000001
201.295 0.15334000000000003
201.613 0.2033400000000003
201.932 0.21667000000000014
202.251 0.1566700000000001
202.567 0.15000000000000036
202.886 0.20667000000000035
203.204 0.21667000000000014
203.523 0.14000000000000012
203.842 0.1566700000000001
204.16 0.18667000000000034
204.479 0.19334000000000007
204.797 0.16334000000000026
205.114 0.20000000000000018
205.433 0.16667000000000032
205.751 0.18000000000000016
206.07 0.18334000000000028
206.388 0.19667000000000012
206.707 0.19334000000000007
207.025 0.20000000000000018
207.342 0.1900000000000004
207.66 0.14000000000000012
207.979 0.22334000000000032
208.297 0.16334000000000026
208.615 0.22999999999999998
208.934 0.22667000000000037
209.25 0.1766700000000001
209.569 0.18000000000000016
209.887 0.23667000000000016
210.205 0.20000000000000018
210.524 0.1766700000000001
210.842 0.2533400000000001
211.158 0.21667000000000014
211.477 0.20667000000000035
211.795 0.12667000000000028
212.113 0.18334000000000028
212.432 0.1466700000000003
212.75 0.20999999999999996
213.066 0.12334000000000023
213.385 0.1900000000000004
213.703 0.20999999999999996
214.021 0.18000000000000016
214.339 0.16000000000000014
214.656 0.2200000000000002
214.974 0.1566700000000001
215.292 0.17334000000000005
215.61 0.18000000000000016
215.926 0.1900000000000004
216.245 0.18667000000000034
216.563 0.1566700000000001
216.881 0.24334000000000033
217.199 0.2633399999999999
217.515 0.20667000000000035
217.833 0.27
218.151 0.2333400000000001
218.469 0.19667000000000012
218.785 0.20999999999999996
219.104 0.2400000000000002
219.422 0.18667000000000034
219.74 0.23667000000000016
220.056 0.19334000000000007
220.374 0.2200000000000002
220.692 0.2466700000000004
221.01 0.22667000000000037
221.326 0.1766700000000001
221.644 0.2200000000000002
221.962 0.19667000000000012
222.28 0.23667000000000016
222.596 0.1900000000000004
222.914 0.22667000000000037
223.232 0.22334000000000032
223.547 0.24334000000000033
223.865 0.21334000000000009
224.183 0.22334000000000032
224.501 0.1900000000000004
224.817 0.16334000000000026
225.135 0.2533400000000001
225.453 0.2200000000000002
225.768 0.22334000000000032
226.086 0.22667000000000037
226.404 0.21334000000000009
226.722 0.2333400000000001
227.038 0.2033400000000003
227.355 0.21667000000000014
227.673 0.2200000000000002
227.989 0.20667000000000035
228.307 0.18667000000000034
228.625 0.22667000000000037
228.94 0.1566700000000001
229.258 0.15334000000000003
229.576 0.2033400000000003
229.891 0.22667000000000037
230.209 0.2200000000000002
230.527 0.2400000000000002
230.842 0.2466700000000004
231.16 0.21334000000000009
231.478 0.22334000000000032
231.793 0.20999999999999996
232.111 0.1900000000000004
232.428 0.20999999999999996
232.744 0.21667000000000014
233.062 0.2400000000000002
233.379 0.2400000000000002
233.695 0.19667000000000012
234.012 0.2466700000000004
234.33 0.2533400000000001
234.645 0.2200000000000002
234.963 0.2033400000000003
235.278 0.2400000000000002
235.596 0.22334000000000032
235.913 0.22667000000000037
236.229 0.22667000000000037
236.546 0.21334000000000009
236.864 0.2033400000000003
237.179 0.22334000000000032
237.497 0.2466700000000004
237.812 0.2400000000000002
238.129 0.22667000000000037
238.447 0.22334000000000032
238.762 0.20667000000000035
239.08 0.20999999999999996
239.395 0.25
239.712 0.20667000000000035
240.03 0.2200000000000002
240.345 0.20667000000000035
240.662 0.23667000000000016
240.978 0.2400000000000002
241.295 0.2566700000000002
241.61 0.2466700000000004
241.927 0.2400000000000002
242.245 0.2866700000000004
242.56 0.29334000000000016
242.877 0.22667000000000037
243.192 0.2733400000000006
243.51 0.27
243.825 0.25
244.142 0.21334000000000009
244.459 0.2533400000000001
244.774 0.2533400000000001
245.092 0.2533400000000001
245.407 0.2466700000000004
245.724 0.2400000000000002
246.039 0.17000000000000037
246.356 0.20999999999999996
246.671 0.20667000000000035
246.988 0.22667000000000037
247.303 0.2200000000000002
247.62 0.20999999999999996
247.938 0.2466700000000004
248.253 0.21334000000000009
248.57 0.16667000000000032
248.885 0.20667000000000035
249.202 0.21667000000000014
249.517 0.25
249.834 0.19334000000000007
250.149 0.20999999999999996
250.466 0.23667000000000016
250.781 0.18334000000000028
251.098 0.21334000000000009
251.412 0.2400000000000002
251.729 0.19667000000000012
252.044 0.2200000000000002
252.361 0.20667000000000035
252.676 0.23667000000000016
252.993 0.18667000000000034
253.308 0.22667000000000037
253.625 0.20000000000000018
253.94 0.21667000000000014
254.256 0.18334000000000028
254.571 0.22667000000000037
254.888 0.18667000000000034
255.203 0.2466700000000004
255.518 0.22667000000000037
255.834 0.18667000000000034
256.149 0.2033400000000003
256.466 0.21667000000000014
256.781 0.20999999999999996
257.097 0.24334000000000033
257.412 0.24334000000000033
257.729 0.18667000000000034
258.044 0.23667000000000016
258.36 0.2200000000000002
258.675 0.2566700000000002
258.99 0.21334000000000009
259.306 0.20667000000000035
259.621 0.20999999999999996
259.938 0.26000000000000023
260.252 0.20000000000000018
260.569 0.2400000000000002
260.883 0.22999999999999998
261.198 0.19667000000000012
261.515 0.2200000000000002
261.829 0.22334000000000032
262.146 0.22667000000000037
262.46 0.18000000000000016
262.775 0.2400000000000002
263.091 0.20999999999999996
263.406 0.22999999999999998
263.723 0.21334000000000009
264.037 0.2333400000000001
264.354 0.2400000000000002
264.668 0.19667000000000012
264.982 0.22999999999999998
265.299 0.20000000000000018
265.613 0.21334000000000009
265.928 0.20999999999999996
266.244 0.2333400000000001
266.559 0.16334000000000026
266.875 0.20000000000000018
267.189 0.2733400000000006
267.504 0.16667000000000032
267.82 0.22999999999999998
268.134 0.20000000000000018
268.449 0.2200000000000002
268.765 0.17334000000000005
269.079 0.2200000000000002
269.394 0.23667000000000016
269.71 0.2333400000000001
270.024 0.22334000000000032
270.341 0.2033400000000003
270.655 0.22999999999999998
270.969 0.24334000000000033
271.286 0.2466700000000004
271.6 0.2533400000000001
271.914 0.22334000000000032
272.23 0.22334000000000032
272.544 0.18334000000000028
272.859 0.23667000000000016
273.175 0.1900000000000004
273.489 0.18334000000000028
273.803 0.21667000000000014
274.119 0.21334000000000009
274.433 0.20999999999999996
274.747 0.21667000000000014
275.062 0.21667000000000014
275.378 0.2466700000000004
275.692 0.17334000000000005
276.006 0.16667000000000032
276.322 0.1766700000000001
276.636 0.2033400000000003
276.95 0.21334000000000009
277.266 0.20667000000000035
277.58 0.2200000000000002
277.894 0.2733400000000006
278.208 0.21334000000000009
278.524 0.22999999999999998
278.838 0.2566700000000002
279.152 0.22667000000000037
279.468 0.2566700000000002
279.782 0.26666999999999996
280.096 0.1900000000000004
280.41 0.20999999999999996
280.726 0.24334000000000033
281.04 0.21334000000000009
281.354 0.24334000000000033
281.668 0.2200000000000002
281.983 0.2333400000000001
282.297 0.2400000000000002
282.611 0.24334000000000033
282.925 0.25
283.241 0.2200000000000002
283.555 0.22999999999999998
283.868 0.2466700000000004
284.182 0.20999999999999996
284.498 0.2200000000000002
284.812 0.2333400000000001
285.126 0.2400000000000002
285.439 0.20000000000000018
285.753 0.22334000000000032
286.069 0.22667000000000037
286.383 0.20667000000000035
286.696 0.24334000000000033
287.01 0.26000000000000023
287.326 0.24334000000000033
287.639 0.20000000000000018
287.953 0.2533400000000001
288.267 0.22334000000000032
288.58 0.2466700000000004
288.896 0.2566700000000002
289.21 0.2200000000000002
289.523 0.2400000000000002
289.837 0.2333400000000001
290.15 0.27
290.466 0.2533400000000001
290.78 0.21667000000000014
291.093 0.2466700000000004
291.407 0.26666999999999996
291.72 0.2400000000000002
292.034 0.20999999999999996
292.349 0.26000000000000023
292.663 0.2400000000000002
292.976 0.2400000000000002
293.29 0.2533400000000001
293.603 0.22334000000000032
293.917 0.22667000000000037
294.232 0.2533400000000001
294.546 0.1766700000000001
294.859 0.26000000000000023
295.172 0.20999999999999996
295.486 0.2466700000000004
295.799 0.24334000000000033
296.113 0.27666999999999975
296.428 0.28334000000000037
296.741 0.1900000000000004
297.055 0.2566700000000002
297.368 0.2533400000000001
297.681 0.17334000000000005
297.995 0.23667000000000016
298.308 0.22667000000000037
298.621 0.25
298.937 0.19667000000000012
299.25 0.2333400000000001
299.563 0.26000000000000023
299.876 0.2200000000000002
300.19 0.2333400000000001
300.503 0.24334000000000033
300.816 0.2533400000000001
301.129 0.22667000000000037
301.442 0.2533400000000001
301.756 0.27
302.071 0.22999999999999998
302.384 0.2466700000000004
302.697 0.2799999999999998
303.01 0.22334000000000032
303.323 0.21334000000000009
303.637 0.2333400000000001
303.95 0.2333400000000001
304.263 0.2566700000000002
304.576 0.1900000000000004
304.889 0.2200000000000002
305.202 0.27
305.515 0.2200000000000002
305.828 0.2533400000000001
306.141 0.22999999999999998
306.456 0.2333400000000001
306.769 0.25
307.082 0.2566700000000002
307.395 0.20999999999999996
307.708 0.22334000000000032
308.021 0.23667000000000016
308.334 0.20000000000000018
308.647 0.2733400000000006
308.96 0.2633399999999999
309.273 0.21334000000000009
309.586 0.2400000000000002
309.899 0.21667000000000014
310.212 0.23667000000000016
310.525 0.22999999999999998
310.838 0.20000000000000018
311.15 0.19334000000000007
311.463 0.2566700000000002
311.776 0.2533400000000001
312.089 0.22334000000000032
312.402 0.2566700000000002
312.715 0.27666999999999975
313.027 0.26000000000000023
313.34 0.2466700000000004
313.653 0.2200000000000002
313.966 0.25
314.278 0.2333400000000001
314.591 0.2200000000000002
314.904 0.2200000000000002
315.217 0.28334000000000037
315.529 0.2466700000000004
315.842 0.20667000000000035
316.155 0.2333400000000001
316.467 0.27
316.78 0.20000000000000018
317.093 0.24334000000000033
317.405 0.20999999999999996
317.718 0.2466700000000004
318.031 0.2733400000000006
318.343 0.2466700000000004
318.656 0.24334000000000033
318.969 0.2333400000000001
319.281 0.2466700000000004
319.592 0.2400000000000002
319.904 0.2333400000000001
320.217 0.2400000000000002
320.529 0.2533400000000001
320.842 0.23667000000000016
321.154 0.2799999999999998
321.467 0.2799999999999998
321.779 0.2733400000000006
322.092 0.2566700000000002
322.404 0.27
322.717 0.27666999999999975
323.029 0.2466700000000004
323.342 0.28334000000000037
323.654 0.27
323.965 0.2866700000000004
324.277 0.2333400000000001
324.589 0.23667000000000016
324.902 0.25
325.214 0.25
325.527 0.2200000000000002
325.839 0.2799999999999998
326.151 0.26000000000000023
326.464 0.2633399999999999
326.776 0.27666999999999975
327.086 0.2799999999999998
327.399 0.28334000000000037
327.711 0.30000000000000027
328.023 0.2866700000000004
328.335 0.31999999999999984
328.648 0.30667
328.96 0.30667
329.27 0.3333400000000002
329.582 0.25
329.895 0.30333999999999994
330.207 0.3400000000000003
330.519 0.3333400000000002
330.831 0.31000000000000005
331.143 0.30000000000000027
331.454 0.30333999999999994
331.766 0.35333999999999977
332.078 0.32667000000000046
332.39 0.2966700000000002
332.702 0.33667000000000025
333.014 0.35333999999999977
333.326 0.33667000000000025
333.636 0.31999999999999984
333.948 0.2799999999999998
334.261 0.32667000000000046
334.573 0.25
334.885 0.2900000000000005
335.195 0.26666999999999996
335.507 0.2466700000000004
335.819 0.27666999999999975
336.131 0.27666999999999975
336.443 0.2866700000000004
336.753 0.26000000000000023
337.065 0.26000000000000023
337.377 0.30667
337.689 0.26000000000000023
338.001 0.28334000000000037
338.31 0.29334000000000016
338.622 0.27666999999999975
338.934 0.27
339.246 0.21334000000000009
339.558 0.2799999999999998
339.868 0.27
340.18 0.26666999999999996
340.492 0.2733400000000006
340.804 0.26666999999999996
341.113 0.3133400000000006
341.425 0.2900000000000005
341.737 0.31000000000000005
342.049 0.30667
342.361 0.29334000000000016
342.67 0.2866700000000004
342.982 0.3566699999999998
343.294 0.30667
343.606 0.29334000000000016
343.915 0.2799999999999998
344.227 0.2900000000000005
344.539 0.30333999999999994
344.849 0.27666999999999975
345.16 0.30000000000000027
345.472 0.2733400000000006
345.784 0.2900000000000005
346.093 0.30000000000000027
346.405 0.31999999999999984
346.717 0.2900000000000005
347.028 0.30000000000000027
347.338 0.28334000000000037
347.649 0.3166699999999998
347.961 0.3166699999999998
348.271 0.2733400000000006
348.582 0.27666999999999975
348.894 0.22667000000000037
349.205 0.30333999999999994
349.515 0.27666999999999975
349.826 0.3233400000000004
350.138 0.2799999999999998
350.447 0.31000000000000005
350.759 0.26666999999999996
351.07 0.32667000000000046
351.38 0.28334000000000037
351.691 0.2900000000000005
352.003 0.2900000000000005
352.312 0.24334000000000033
352.624 0.2900000000000005
352.935 0.27666999999999975
353.245 0.27666999999999975
353.556 0.3133400000000006
353.867 0.2733400000000006
354.177 0.2733400000000006
354.488 0.2799999999999998
354.799 0.30000000000000027
355.109 0.2866700000000004
355.42 0.2799999999999998
355.732 0.2900000000000005
356.041 0.3133400000000006
356.352 0.2866700000000004
356.663 0.29334000000000016
356.973 0.27666999999999975
357.284 0.26666999999999996
357.593 0.3166699999999998
357.905 0.27666999999999975
358.216 0.2799999999999998
358.525 0.25
358.836 0.2900000000000005
359.147 0.28334000000000037
359.457 0.3166699999999998
359.768 0.2866700000000004
360.077 0.2866700000000004
360.388 0.2533400000000001
360.699 0.30000000000000027
361.008 0.27
361.32 0.3133400000000006
361.629 0.2566700000000002
361.94 0.3133400000000006
362.251 0.2900000000000005
362.56 0.26000000000000023
362.871 0.30333999999999994
363.18 0.2866700000000004
363.491 0.2633399999999999
363.8 0.2466700000000004
364.111 0.3166699999999998
364.422 0.27666999999999975
364.731 0.2866700000000004
365.042 0.29334000000000016
365.351 0.31000000000000005
365.662 0.2733400000000006
365.971 0.27666999999999975
366.282 0.2900000000000005
366.593 0.25
366.902 0.29334000000000016
367.213 0.28334000000000037
367.522 0.27
367.833 0.2566700000000002
368.142 0.30333999999999994
368.453 0.2733400000000006
368.762 0.2466700000000004
369.073 0.28334000000000037
369.381 0.31999999999999984
369.692 0.2900000000000005
370.001 0.2966700000000002
370.312 0.2866700000000004
370.623 0.2900000000000005
370.932 0.28334000000000037
371.242 0.30000000000000027
371.551 0.27666999999999975
371.862 0.2466700000000004
372.171 0.32667000000000046
372.482 0.30333999999999994
372.79 0.31999999999999984
373.101 0.3133400000000006
373.41 0.2866700000000004
373.721 0.2733400000000006
374.029 0.25
374.34 0.2400000000000002
374.649 0.2799999999999998
374.959 0.31999999999999984
375.268 0.2900000000000005
375.577 0.3133400000000006
375.887 0.30667
376.196 0.31000000000000005
376.506 0.26000000000000023
376.815 0.25
377.126 0.29334000000000016
377.434 0.3333400000000002
377.745 0.2566700000000002
378.053 0.2733400000000006
378.364 0.2966700000000002
378.672 0.2866700000000004
378.983 0.22667000000000037
379.292 0.28334000000000037
379.6 0.26666999999999996
379.911 0.31999999999999984
380.219 0.3133400000000006
380.53 0.2799999999999998
380.838 0.27
381.148 0.2966700000000002
381.457 0.2966700000000002
381.767 0.27
382.076 0.34667000000000003
382.384 0.2900000000000005
382.695 0.2566700000000002
383.003 0.29334000000000016
383.313 0.2733400000000006
383.622 0.3233400000000004
383.93 0.2633399999999999
384.24 0.27
384.549 0.2966700000000002
384.859 0.30333999999999994
385.167 0.3133400000000006
385.476 0.30000000000000027
385.786 0.29334000000000016
386.094 0.30667
386.405 0.31000000000000005
386.713 0.30333999999999994
387.021 0.30667
387.331 0.34667000000000003
387.64 0.35333999999999977
387.948 0.3333400000000002
388.258 0.30333999999999994
388.566 0.30333999999999994
388.877 0.29334000000000016
389.185 0.3166699999999998
389.493 0.3333400000000002
389.803 0.2866700000000004
390.111 0.27666999999999975
390.419 0.29334000000000016
390.729 0.31000000000000005
391.038 0.2966700000000002
391.346 0.30667
391.656 0.32667000000000046
391.964 0.2333400000000001
392.272 0.3333400000000002
392.582 0.31000000000000005
392.89 0.3233400000000004
393.198 0.2900000000000005
393.508 0.3166699999999998
393.816 0.33667000000000025
394.124 0.2966700000000002
394.434 0.31999999999999984
394.742 0.3400000000000003
395.05 0.2900000000000005
395.36 0.27
395.668 0.3166699999999998
395.976 0.2900000000000005
396.286 0.2966700000000002
396.594 0.2866700000000004
396.902 0.3133400000000006
397.21 0.3333400000000002
397.52 0.28334000000000037
397.828 0.34667000000000003
398.135 0.33667000000000025
398.445 0.30000000000000027
398.753 0.30333999999999994
399.061 0.2733400000000006
399.369 0.2900000000000005
399.679 0.34334
399.987 0.2799999999999998
400.294 0.2466700000000004
400.604 0.2900000000000005
400.912 0.3133400000000006
401.22 0.2799999999999998
401.527 0.3400000000000003
401.837 0.31999999999999984
402.145 0.3500000000000001
402.453 0.3400000000000003
402.76 0.33667000000000025
403.07 0.3400000000000003
403.378 0.33667000000000025
403.686 0.3599999999999999
403.993 0.32667000000000046
404.303 0.34334
404.611 0.36334000000000044
404.918 0.3400000000000003
405.226 0.35333999999999977
405.533 0.37000000000000055
405.843 0.36334000000000044
406.151 0.3500000000000001
406.458 0.34334
406.766 0.36334000000000044
407.076 0.31000000000000005
407.383 0.30333999999999994
407.691 0.38000000000000034
407.998 0.3933399999999998
408.306 0.3666700000000005
408.615 0.3933399999999998
408.923 0.38334
409.23 0.3766700000000003
409.538 0.38334
409.845 0.38000000000000034
410.153 0.41334000000000026
410.462 0.36334000000000044
410.77 0.4266700000000001
411.077 0.42334000000000005
411.384 0.4266700000000001
411.692 0.4200000000000004
412.001 0.4266700000000001
412.309 0.44999999999999973
412.616 0.39666999999999986
412.923 0.4700000000000002
413.231 0.44667000000000057
413.538 0.45667000000000035
413.845 0.4766699999999999
414.155 0.5533399999999999
414.462 0.5133399999999999
414.769 0.5299999999999998
415.077 0.5299999999999998
415.384 0.5299999999999998
415.691 0.6133400000000004
415.999 0.6000000000000001
416.308 0.6000000000000001
416.615 0.6033399999999998
416.922 0.6600000000000006
417.23 0.6466699999999999
417.537 0.6933400000000005
417.844 0.7100000000000004
418.151 0.7933400000000002
418.458 0.7600000000000002
418.768 0.80667
419.075 0.8366700000000002
419.382 0.7766699999999997
419.689 0.8966699999999999
419.996 0.9733399999999999
420.303 0.9333399999999998
420.61 0.9300000000000002
420.918 0.9666700000000001
421.225 0.98
421.532 1.0066700000000002
421.841 0.9966700000000004
422.148 1.0333400000000004
422.455 0.9633400000000001
422.762 1.1
423.069 1.0333400000000004
423.376 1.0733400000000004
423.683 1.0333400000000004
423.99 1.0833400000000002
424.297 0.9566700000000004
424.604 0.9899999999999998
424.911 1.0466700000000002
425.218 0.9266700000000001
425.525 0.92334
425.832 0.8400000000000003
426.139 0.8366700000000002
426.446 0.8766700000000003
426.753 0.8733400000000002
427.061 0.8766700000000003
427.368 0.77
427.675 0.7866700000000004
427.982 0.7799999999999998
428.289 0.7200000000000002
428.596 0.67334
428.903 0.7266699999999999
429.209 0.6633400000000003
429.516 0.6933400000000005
429.823 0.6766700000000001
430.13 0.6766700000000001
430.437 0.6200000000000006
430.743 0.59334
431.05 0.5900000000000003
431.357 0.5800000000000005
431.664 0.5800000000000005
431.97 0.56
432.277 0.5666699999999998
432.584 0.5433400000000002
432.891 0.5033400000000001
433.197 0.5333400000000004
433.504 0.4966700000000004
433.811 0.48999999999999977
434.117 0.4766699999999999
434.424 0.48
434.731 0.4700000000000002
435.037 0.45667000000000035
435.344 0.5100000000000002
435.65 0.4866700000000006
435.957 0.4433400000000005
436.262 0.4633400000000001
436.568 0.44667000000000057
436.875 0.43333999999999984
437.181 0.3999999999999999
437.488 0.4266700000000001
437.794 0.4166700000000003
438.101 0.41334000000000026
438.407 0.41334000000000026
438.714 0.43333999999999984
439.02 0.42334000000000005
439.327 0.4033400000000005
439.633 0.43999999999999995
439.94 0.3933399999999998
440.246 0.3766700000000003
440.553 0.35333999999999977
440.859 0.41334000000000026
441.163 0.3999999999999999
441.47 0.3933399999999998
441.776 0.41334000000000026
442.083 0.4033400000000005
442.389 0.35333999999999977
442.695 0.3666700000000005
443.002 0.3999999999999999
443.308 0.3999999999999999
443.614 0.38667000000000007
443.921 0.3733400000000002
444.225 0.3999999999999999
444.531 0.38000000000000034
444.838 0.4200000000000004
445.144 0.32667000000000046
445.45 0.38334
445.757 0.38000000000000034
446.063 0.38000000000000034
446.369 0.4033400000000005
446.675 0.3933399999999998
446.979 0.38000000000000034
447.286 0.40667000000000053
447.592 0.3733400000000002
447.898 0.43999999999999995
448.204 0.3933399999999998
448.51 0.3566699999999998
448.817 0.38667000000000007
449.121 0.3999999999999999
449.427 0.38334
449.733 0.4100000000000006
450.039 0.3900000000000001
450.345 0.38667000000000007
450.651 0.4633400000000001
450.955 0.39666999999999986
451.261 0.38667000000000007
451.568 0.4266700000000001
451.874 0.3933399999999998
452.18 0.38000000000000034
452.486 0.39666999999999986
452.79 0.4166700000000003
453.096 0.3733400000000002
453.402 0.3999999999999999
453.708 0.3500000000000001
454.014 0.38000000000000034
454.318 0.37000000000000055
454.624 0.36334000000000044
454.93 0.38000000000000034
455.236 0.3666700000000005
455.541 0.3400000000000003
455.845 0.3766700000000003
456.151 0.3999999999999999
456.457 0.3500000000000001
456.763 0.36334000000000044
457.067 0.37000000000000055
457.373 0.38334
457.679 0.31999999999999984
457.985 0.3566699999999998
458.29 0.35333999999999977
458.594 0.37000000000000055
458.9 0.3900000000000001
459.206 0.3333400000000002
459.512 0.34334
459.815 0.3666700000000005
460.121 0.3500000000000001
460.427 0.3599999999999999
460.733 0.3166699999999998
461.036 0.3766700000000003
461.342 0.3500000000000001
461.648 0.3333400000000002
461.954 0.3599999999999999
462.257 0.3599999999999999
462.563 0.34334
462.869 0.3133400000000006
463.172 0.30000000000000027
463.478 0.35333999999999977
463.784 0.3900000000000001
464.089 0.3333400000000002
464.393 0.3333400000000002
464.699 0.33667000000000025
465.004 0.3666700000000005
465.308 0.3300000000000005
465.613 0.36334000000000044
465.919 0.3733400000000002
466.225 0.34334
466.528 0.3400000000000003
466.834 0.37000000000000055
467.139 0.38667000000000007
467.443 0.32667000000000046
467.748 0.30667
468.054 0.3599999999999999
468.357 0.38334
468.663 0.36334000000000044
468.968 0.3766700000000003
469.272 0.3333400000000002
469.577 0.3166699999999998
469.883 0.3333400000000002
470.186 0.3999999999999999
470.492 0.35333999999999977
470.797 0.36334000000000044
471.1 0.3500000000000001
471.406 0.34334
471.711 0.3766700000000003
472.014 0.34667000000000003
472.32 0.3599999999999999
472.625 0.38000000000000034
472.929 0.42334000000000005
473.234 0.3766700000000003
473.539 0.38334
473.843 0.4100000000000006
474.148 0.43333999999999984
474.451 0.40667000000000053
474.756 0.3733400000000002
475.062 0.3999999999999999
475.365 0.45667000000000035
475.67 0.4100000000000006
475.973 0.42334000000000005
476.279 0.4433400000000005
476.584 0.43333999999999984
476.887 0.5100000000000002
477.192 0.5333400000000004
477.498 0.6300000000000003
477.801 0.6266700000000003
478.106 0.6466699999999999
478.409 0.6400000000000001
478.714 0.6499999999999999
479.017 0.6999999999999997
479.322 0.6866699999999999
479.628 0.7066700000000004
479.931 0.6966700000000006
480.236 0.6666700000000003
480.539 0.69
480.844 0.6766700000000001
481.147 0.6700000000000004
481.452 0.6033399999999998
481.757 0.5766700000000005
482.06 0.6166700000000005
482.365 0.5466700000000002
482.668 0.47333999999999987
482.973 0.41334000000000026
483.276 0.42334000000000005
483.581 0.39666999999999986
483.884 0.42334000000000005
484.189 0.4100000000000006
484.494 0.3733400000000002
484.797 0.4166700000000003
485.102 0.43333999999999984
485.405 0.38334
485.71 0.44999999999999973
486.013 0.4166700000000003
486.318 0.3666700000000005
486.621 0.3599999999999999
486.925 0.3733400000000002
487.228 0.3400000000000003
487.533 0.3900000000000001
487.836 0.33667000000000025
488.141 0.3666700000000005
488.444 0.34667000000000003
488.748 0.38334
489.051 0.3599999999999999
489.356 0.3766700000000003
489.659 0.3233400000000004
489.964 0.37000000000000055
490.266 0.33667000000000025
490.571 0.3566699999999998
490.874 0.3333400000000002
491.179 0.31999999999999984
491.481 0.30333999999999994
491.786 0.3599999999999999
492.089 0.38000000000000034
492.393 0.3333400000000002
492.696 0.3500000000000001
493.001 0.3300000000000005
493.303 0.33667000000000025
493.606 0.3133400000000006
493.911 0.30667
494.213 0.33667000000000025
494.518 0.31999999999999984
494.821 0.3233400000000004
495.125 0.3300000000000005
495.428 0.32667000000000046
495.732 0.34667000000000003
496.035 0.34667000000000003
496.337 0.2566700000000002
496.642 0.31999999999999984
496.945 0.33667000000000025
497.249 0.33667000000000025
497.552 0.3500000000000001
497.856 0.3500000000000001
498.159 0.30000000000000027
498.461 0.29334000000000016
498.766 0.3133400000000006
499.068 0.3500000000000001
499.372 0.31999999999999984
499.675 0.30000000000000027
499.977 0.3400000000000003
500.282 0.3300000000000005
500.584 0.31000000000000005
500.889 0.2900000000000005
501.191 0.31999999999999984
501.493 0.30000000000000027
501.798 0.3300000000000005
502.1 0.31000000000000005
502.402 0.31999999999999984
502.707 0.2966700000000002
503.009 0.30667
503.314 0.3133400000000006
503.616 0.3166699999999998
503.918 0.2866700000000004
504.222 0.2966700000000002
504.525 0.3166699999999998
504.827 0.3300000000000005
505.131 0.32667000000000046
505.433 0.30667
505.736 0.3233400000000004
506.04 0.2900000000000005
506.342 0.32667000000000046
506.646 0.2799999999999998
506.949 0.3400000000000003
507.251 0.3133400000000006
507.555 0.30000000000000027
507.857 0.2966700000000002
508.159 0.30667
508.461 0.29334000000000016
508.766 0.30333999999999994
509.068 0.2866700000000004
509.37 0.2900000000000005
509.674 0.3166699999999998
509.976 0.34334
510.278 0.3566699999999998
510.582 0.2633399999999999
510.884 0.3133400000000006
511.186 0.3133400000000006
511.49 0.26000000000000023
511.792 0.2566700000000002
512.094 0.28334000000000037
512.396 0.3133400000000006
512.701 0.3133400000000006
513.003 0.3133400000000006
513.305 0.35333999999999977
513.609 0.2966700000000002
513.91 0.32667000000000046
514.212 0.2866700000000004
514.514 0.28334000000000037
514.818 0.2799999999999998
515.12 0.30667
515.422 0.34334
515.724 0.27
516.028 0.2733400000000006
516.33 0.2866700000000004
516.632 0.2866700000000004
516.934 0.30667
517.237 0.3233400000000004
517.539 0.2966700000000002
517.841 0.3566699999999998
518.143 0.30000000000000027
518.447 0.3233400000000004
518.749 0.29334000000000016
519.05 0.32667000000000046
519.352 0.2966700000000002
519.656 0.2900000000000005
519.958 0.36334000000000044
520.26 0.3333400000000002
520.561 0.3166699999999998
520.863 0.29334000000000016
521.167 0.32667000000000046
521.468 0.31000000000000005
521.77 0.3166699999999998
522.072 0.3333400000000002
522.376 0.3599999999999999
522.677 0.3400000000000003
522.979 0.2966700000000002
523.281 0.3766700000000003
523.582 0.33667000000000025
523.884 0.2900000000000005
524.187 0.37000000000000055
524.489 0.3133400000000006
524.791 0.3133400000000006
525.092 0.33667000000000025
525.394 0.31999999999999984
525.697 0.30000000000000027
525.999 0.34667000000000003
526.301 0.31000000000000005
526.602 0.3233400000000004
526.904 0.33667000000000025
527.205 0.38000000000000034
527.507 0.35333999999999977
527.81 0.2866700000000004
528.112 0.31000000000000005
528.413 0.2966700000000002
528.715 0.33667000000000025
529.016 0.31999999999999984
529.318 0.28334000000000037
529.619 0.3333400000000002
529.922 0.43999999999999995
530.224 0.32667000000000046
530.525 0.31999999999999984
530.827 0.31000000000000005
531.128 0.29334000000000016
531.429 0.32667000000000046
531.731 0.3566699999999998
532.032 0.3599999999999999
532.336 0.3166699999999998
532.637 0.34667000000000003
532.938 0.34667000000000003
533.24 0.3300000000000005
533.541 0.30667
533.842 0.30667
534.143 0.3166699999999998
534.445 0.3500000000000001
534.746 0.34334
535.047 0.33667000000000025
535.351 0.3133400000000006
535.652 0.30667
535.953 0.32667000000000046
536.254 0.3233400000000004
536.555 0.3233400000000004
536.857 0.30667
537.158 0.3599999999999999
537.459 0.3333400000000002
537.76 0.3599999999999999
538.061 0.3233400000000004
538.362 0.33667000000000025
538.664 0.34667000000000003
538.965 0.32667000000000046
539.266 0.31999999999999984
539.567 0.3133400000000006
539.868 0.3333400000000002
540.169 0.2966700000000002
540.472 0.3400000000000003
540.773 0.30667
541.074 0.33667000000000025
541.375 0.34667000000000003
541.677 0.3166699999999998
541.978 0.3333400000000002
542.279 0.3333400000000002
542.58 0.3400000000000003
542.881 0.34334
543.182 0.34667000000000003
543.483 0.2799999999999998
543.784 0.3300000000000005
544.085 0.35333999999999977
544.385 0.33667000000000025
544.686 0.3566699999999998
544.987 0.3233400000000004
545.288 0.33667000000000025
545.589 0.3500000000000001
545.89 0.33667000000000025
546.191 0.27666999999999975
546.492 0.3500000000000001
546.793 0.3566699999999998
547.094 0.3300000000000005
547.394 0.3333400000000002
547.695 0.3733400000000002
547.996 0.42334000000000005
548.297 0.3733400000000002
548.596 0.4100000000000006
548.897 0.37000000000000055
549.197 0.39666999999999986
549.498 0.4366699999999999
549.799 0.3933399999999998
550.1 0.3900000000000001
550.4 0.4266700000000001
550.701 0.41334000000000026
551.002 0.43000000000000016
551.303 0.3900000000000001
551.603 0.47333999999999987
551.904 0.4533400000000003
552.205 0.4866700000000006
552.505 0.4266700000000001
552.806 0.48
553.107 0.41334000000000026
553.407 0.4766699999999999
553.706 0.44999999999999973
554.007 0.43333999999999984
554.307 0.48334000000000055
554.608 0.4700000000000002
554.909 0.5000000000000004
555.209 0.4433400000000005
555.51 0.4600000000000004
555.81 0.44999999999999973
556.111 0.4633400000000001
556.411 0.41334000000000026
556.71 0.4200000000000004
557.01 0.43333999999999984
557.311 0.4533400000000003
557.612 0.40667000000000053
557.912 0.3999999999999999
558.213 0.4200000000000004
558.513 0.43999999999999995
558.813 0.3666700000000005
559.112 0.3933399999999998
559.412 0.34667000000000003
559.713 0.36334000000000044
560.013 0.3933399999999998
560.314 0.3566699999999998
560.614 0.3900000000000001
560.914 0.34667000000000003
561.213 0.3766700000000003
561.513 0.3300000000000005
561.814 0.3566699999999998
562.114 0.3733400000000002
562.414 0.32667000000000046
562.715 0.34667000000000003
563.015 0.3766700000000003
563.313 0.3566699999999998
563.614 0.34667000000000003
563.914 0.3166699999999998
564.214 0.34334
564.515 0.39666999999999986
564.813 0.35333999999999977
565.113 0.30667
565.413 0.3166699999999998
565.714 0.35333999999999977
566.014 0.3333400000000002
566.312 0.3300000000000005
566.612 0.29334000000000016
566.912 0.35333999999999977
567.213 0.3333400000000002
567.513 0.3400000000000003
567.811 0.31999999999999984
568.111 0.30333999999999994
568.411 0.3233400000000004
568.712 0.2866700000000004
569.012 0.30667
569.31 0.27
569.61 0.31000000000000005
569.91 0.30667
570.21 0.3300000000000005
570.508 0.3333400000000002
570.808 0.3233400000000004
571.108 0.33667000000000025
571.408 0.29334000000000016
571.706 0.29334000000000016
572.006 0.30667
572.306 0.3500000000000001
572.607 0.3766700000000003
572.904 0.33667000000000025
573.204 0.3333400000000002
573.505 0.31999999999999984
573.805 0.34334
574.102 0.30667
574.402 0.3166699999999998
574.702 0.30333999999999994
575.002 0.3333400000000002
575.3 0.33667000000000025
575.6 0.31000000000000005
575.9 0.3166699999999998
576.198 0.32667000000000046
576.498 0.3300000000000005
576.798 0.30333999999999994
577.098 0.3133400000000006
577.395 0.3566699999999998
577.695 0.3233400000000004
577.995 0.3400000000000003
578.293 0.27666999999999975
578.593 0.3233400000000004
578.893 0.33667000000000025
579.19 0.33667000000000025
579.49 0.27666999999999975
579.79 0.2733400000000006
580.088 0.3166699999999998
580.387 0.3166699999999998
580.687 0.2900000000000005
580.985 0.3500000000000001
581.285 0.3133400000000006
581.584 0.2966700000000002
581.882 0.34334
582.182 0.28334000000000037
582.482 0.2900000000000005
582.779 0.34334
583.079 0.31999999999999984
583.378 0.2866700000000004
583.676 0.32667000000000046
583.976 0.3166699999999998
584.275 0.2733400000000006
584.573 0.28334000000000037
584.873 0.32667000000000046
585.17 0.3400000000000003
585.47 0.31000000000000005
585.769 0.31999999999999984
586.067 0.31999999999999984
586.367 0.3166699999999998
586.666 0.3166699999999998
586.964 0.2633399999999999
587.263 0.3400000000000003
587.561 0.32667000000000046
587.86 0.33667000000000025
588.16 0.30333999999999994
588.457 0.3166699999999998
588.757 0.2900000000000005
589.054 0.2900000000000005
589.354 0.3566699999999998
589.653 0.3133400000000006
589.951 0.29334000000000016
590.25 0.30333999999999994
590.547 0.2866700000000004
590.847 0.3133400000000006
591.144 0.34334
591.444 0.3300000000000005
591.743 0.32667000000000046
592.04 0.31000000000000005
592.34 0.33667000000000025
592.637 0.30333999999999994
592.936 0.31000000000000005
593.234 0.2633399999999999
593.533 0.2866700000000004
593.832 0.30667
594.13 0.36334000000000044
594.429 0.3400000000000003
594.726 0.3133400000000006
595.026 0.2966700000000002
595.323 0.26666999999999996
595.622 0.30667
595.919 0.3333400000000002
596.219 0.3133400000000006
596.516 0.29334000000000016
596.815 0.30000000000000027
597.112 0.31999999999999984
597.411 0.30333999999999994
597.709 0.3400000000000003
598.008 0.2900000000000005
598.305 0.3400000000000003
598.604 0.3233400000000004
598.901 0.3133400000000006
599.2 0.29334000000000016
599.497 0.3300000000000005
599.797 0.3233400000000004
600.094 0.3333400000000002
600.393 0.3233400000000004
600.69 0.36334000000000044
600.989 0.29334000000000016
601.286 0.3166699999999998
601.585 0.2900000000000005
601.882 0.33667000000000025
602.181 0.3333400000000002
602.478 0.3133400000000006
602.777 0.3566699999999998
603.074 0.37000000000000055
603.373 0.33667000000000025
603.67 0.3566699999999998
603.969 0.32667000000000046
604.266 0.32667000000000046
604.563 0.35333999999999977
604.862 0.34667000000000003
605.159 0.3166699999999998
605.458 0.3333400000000002
605.755 0.35333999999999977
606.054 0.3300000000000005
606.351 0.36334000000000044
606.65 0.36334000000000044
606.946 0.3599999999999999
607.243 0.32667000000000046
607.542 0.3666700000000005
607.839 0.3599999999999999
608.138 0.32667000000000046
608.435 0.38000000000000034
608.732 0.40667000000000053
609.03 0.3400000000000003
609.327 0.34667000000000003
609.626 0.3766700000000003
609.923 0.37000000000000055
610.22 0.38000000000000034
610.518 0.3666700000000005
610.815 0.42334000000000005
611.114 0.3999999999999999
611.411 0.4166700000000003
611.707 0.4100000000000006
612.006 0.41334000000000026
612.303 0.38000000000000034
612.601 0.4033400000000005
612.898 0.43333999999999984
613.195 0.4166700000000003
613.493 0.38334
613.79 0.39666999999999986
614.087 0.39666999999999986
614.385 0.3999999999999999
614.682 0.3333400000000002
614.979 0.39666999999999986
615.277 0.34667000000000003
615.574 0.3733400000000002
615.87 0.3999999999999999
616.169 0.3900000000000001
616.466 0.38667000000000007
616.764 0.3400000000000003
617.061 0.3733400000000002
617.357 0.34667000000000003
617.656 0.3666700000000005
617.952 0.38000000000000034
618.249 0.3733400000000002
618.545 0.3666700000000005
618.844 0.32667000000000046
619.14 0.34334
619.437 0.3133400000000006
619.735 0.3766700000000003
620.032 0.3400000000000003
620.328 0.32667000000000046
620.626 0.31999999999999984
620.923 0.2799999999999998
621.219 0.38000000000000034
621.518 0.3400000000000003
621.814 0.3566699999999998
622.11 0.30333999999999994
622.407 0.35333999999999977
622.705 0.3300000000000005
623.002 0.32667000000000046
623.298 0.32667000000000046
623.594 0.3500000000000001
623.893 0.33667000000000025
624.189 0.3566699999999998
624.485 0.3500000000000001
624.784 0.31999999999999984
625.08 0.3133400000000006
625.376 0.35333999999999977
625.672 0.2799999999999998
625.971 0.2900000000000005
626.267 0.3400000000000003
626.563 0.33667000000000025
626.859 0.32667000000000046
627.158 0.33667000000000025
627.454 0.3333400000000002
627.75 0.31999999999999984
628.046 0.3400000000000003
628.342 0.34667000000000003
628.641 0.3133400000000006
628.937 0.3500000000000001
629.233 0.3133400000000006
629.529 0.33667000000000025
629.827 0.3133400000000006
630.123 0.3566699999999998
630.419 0.34334
630.715 0.3233400000000004
631.011 0.2799999999999998
631.31 0.34667000000000003
631.606 0.3333400000000002
631.902 0.3566699999999998
632.198 0.2799999999999998
632.494 0.33667000000000025
632.792 0.3300000000000005
633.088 0.30000000000000027
633.384 0.34667000000000003
633.68 0.3300000000000005
633.976 0.3233400000000004
634.272 0.2900000000000005
634.57 0.31000000000000005
634.866 0.3133400000000006
635.162 0.34667000000000003
635.458 0.32667000000000046
635.754 0.31999999999999984
636.05 0.34667000000000003
636.347 0.34334
636.643 0.3233400000000004
636.939 0.3166699999999998
637.235 0.3333400000000002
637.531 0.31000000000000005
637.827 0.30333999999999994
638.123 0.3400000000000003
638.421 0.29334000000000016
638.716 0.3400000000000003
639.012 0.30000000000000027
639.308 0.2866700000000004
639.604 0.33667000000000025
639.9 0.31999999999999984
640.195 0.3166699999999998
640.491 0.32667000000000046
640.789 0.3300000000000005
641.085 0.31999999999999984
641.381 0.30000000000000027
641.676 0.2966700000000002
641.972 0.3300000000000005
642.268 0.32667000000000046
642.563 0.2966700000000002
642.859 0.3300000000000005
643.155 0.3166699999999998
643.451 0.31999999999999984
643.746 0.31000000000000005
644.044 0.3400000000000003
644.34 0.3333400000000002
644.635 0.3233400000000004
644.931 0.31999999999999984
645.227 0.31999999999999984
645.522 0.30000000000000027
645.818 0.3500000000000001
646.113 0.3500000000000001
646.409 0.33667000000000025
646.704 0.32667000000000046
647.0 0.34334
647.296 0.2966700000000002
647.591 0.38000000000000034
647.887 0.3566699999999998
648.182 0.3500000000000001
648.478 0.3500000000000001
648.773 0.3400000000000003
649.069 0.3666700000000005
649.366 0.2966700000000002
649.662 0.34334
649.957 0.34667000000000003
650.253 0.34334
650.548 0.34334
650.844 0.34667000000000003
651.139 0.37000000000000055
651.434 0.3733400000000002
651.73 0.36334000000000044
652.025 0.36334000000000044
652.321 0.3933399999999998
652.616 0.3599999999999999
652.911 0.3566699999999998
653.207 0.3166699999999998
653.502 0.3500000000000001
653.797 0.3933399999999998
654.093 0.41334000000000026
654.388 0.41334000000000026
654.683 0.38334
654.979 0.37000000000000055
655.274 0.3900000000000001
655.567 0.3933399999999998
655.863 0.46667000000000014
656.158 0.4433400000000005
656.453 0.44999999999999973
656.748 0.43999999999999995
657.044 0.44667000000000057
657.339 0.44667000000000057
657.634 0.5533399999999999
657.929 0.4866700000000006
658.224 0.48999999999999977
658.52 0.4700000000000002
658.815 0.5066700000000002
659.11 0.56
659.405 0.51667
659.7 0.55667
659.995 0.5366700000000004
660.291 0.5533399999999999
660.586 0.51667
660.879 0.5266699999999997
661.174 0.51667
661.469 0.48334000000000055
661.764 0.45667000000000035
662.059 0.5000000000000004
662.354 0.5299999999999998
662.649 0.5000000000000004
662.944 0.44999999999999973
663.239 0.4866700000000006
663.534 0.40667000000000053
663.83 0.4200000000000004
664.122 0.43999999999999995
664.417 0.38667000000000007
664.713 0.4100000000000006
665.008 0.4533400000000003
665.302 0.38000000000000034
665.597 0.44999999999999973
665.892 0.4033400000000005
666.187 0.36334000000000044
666.48 0.3733400000000002
666.775 0.38667000000000007
667.07 0.3733400000000002
667.365 0.3999999999999999
667.66 0.3566699999999998
667.955 0.3900000000000001
668.25 0.3599999999999999
668.542 0.38000000000000034
668.837 0.37000000000000055
669.132 0.35333999999999977
669.427 0.3733400000000002
669.722 0.38000000000000034
670.017 0.3666700000000005
670.31 0.3400000000000003
670.604 0.34667000000000003
670.899 0.2733400000000006
671.194 0.34667000000000003
671.489 0.3233400000000004
671.783 0.3500000000000001
672.076 0.2799999999999998
672.371 0.3333400000000002
672.666 0.3400000000000003
672.96 0.2866700000000004
673.255 0.35333999999999977
673.548 0.3233400000000004
673.842 0.34334
674.137 0.3233400000000004
674.432 0.32667000000000046
674.727 0.3166699999999998
675.019 0.3566699999999998
675.314 0.3166699999999998
675.608 0.3400000000000003
675.903 0.35333999999999977
676.196 0.34667000000000003
676.49 0.35333999999999977
676.785 0.3333400000000002
677.079 0.38000000000000034
677.374 0.31999999999999984
677.667 0.3166699999999998
677.961 0.33667000000000025
678.256 0.3166699999999998
678.55 0.32667000000000046
678.843 0.3599999999999999
679.137 0.34334
679.432 0.3300000000000005
679.726 0.34334
680.019 0.34667000000000003
680.313 0.30333999999999994
680.608 0.36334000000000044
680.902 0.32667000000000046
681.195 0.31999999999999984
681.489 0.35333999999999977
681.784 0.35333999999999977
682.076 0.3166699999999998
682.37 0.3566699999999998
682.665 0.3133400000000006
682.959 0.3166699999999998
683.252 0.27666999999999975
683.546 0.33667000000000025
683.84 0.30000000000000027
684.133 0.3166699999999998
684.427 0.30667
684.721 0.30333999999999994
685.014 0.33667000000000025
685.308 0.3133400000000006
685.602 0.2866700000000004
685.895 0.31000000000000005
686.189 0.3300000000000005
686.483 0.30333999999999994
686.778 0.30667
687.07 0.31999999999999984
687.364 0.33667000000000025
687.658 0.32667000000000046
687.951 0.3166699999999998
688.245 0.30667
688.537 0.35333999999999977
688.831 0.3133400000000006
689.125 0.27666999999999975
689.418 0.32667000000000046
689.712 0.29334000000000016
690.006 0.3233400000000004
690.298 0.34667000000000003
690.592 0.31000000000000005
690.886 0.34667000000000003
691.178 0.30333999999999994
691.473 0.3166699999999998
691.767 0.31000000000000005
692.059 0.28334000000000037
692.353 0.30667
692.645 0.2900000000000005
692.939 0.2966700000000002
693.233 0.30333999999999994
693.525 0.30667
693.819 0.3166699999999998
694.111 0.28334000000000037
694.405 0.3133400000000006
694.699 0.30333999999999994
694.991 0.31999999999999984
695.285 0.2866700000000004
695.577 0.29334000000000016
695.871 0.2466700000000004
696.165 0.3333400000000002
696.457 0.30333999999999994
696.751 0.2966700000000002
697.043 0.2799999999999998
697.337 0.32667000000000046
697.629 0.3166699999999998
697.923 0.31000000000000005
698.217 0.2733400000000006
698.509 0.27
698.802 0.30000000000000027
699.094 0.34667000000000003
699.388 0.3133400000000006
699.68 0.3166699999999998
699.974 0.30333999999999994
700.266 0.3233400000000004
700.56 0.3400000000000003
700.853 0.30333999999999994
701.145 0.3400000000000003
701.439 0.29334000000000016
701.731 0.34334
702.025 0.30333999999999994
702.316 0.2866700000000004
702.61 0.2966700000000002
702.902 0.2900000000000005
703.196 0.31000000000000005
703.487 0.33667000000000025
703.781 0.25
704.073 0.3400000000000003
704.367 0.2900000000000005
704.658 0.2799999999999998
704.952 0.30667
705.244 0.26666999999999996
705.537 0.2900000000000005
705.829 0.31000000000000005
706.122 0.31999999999999984
706.414 0.31999999999999984
706.708 0.2900000000000005
706.999 0.3300000000000005
707.293 0.29334000000000016
