# Created: 2019-11-28 11:43:36.245029
# rshift intensity
50.0661 0.07000000000000006
50.3922 0.09000000000000008
50.7161 0.06667000000000001
51.0421 0.061670000000000114
51.3681 0.07000000000000006
51.6941 0.08000000000000007
52.0201 0.08000000000000007
52.3439 0.061670000000000114
52.6699 0.06833
52.9958 0.06667000000000001
53.3218 0.061670000000000114
53.6477 0.06333000000000011
53.9715 0.07500000000000018
54.2974 0.08500000000000019
54.6233 0.06333000000000011
54.9492 0.06667000000000001
55.2729 0.07333000000000012
55.5988 0.07000000000000006
55.9246 0.06500000000000017
56.2505 0.08500000000000019
56.5742 0.06000000000000005
56.9 0.05667
57.2258 0.06000000000000005
57.5516 0.06667000000000001
57.8752 0.061670000000000114
58.201 0.06667000000000001
58.5267 0.0533300000000001
58.8525 0.05500000000000016
59.1761 0.08500000000000019
59.5018 0.08500000000000019
59.8275 0.06667000000000001
60.1532 0.10333000000000014
60.4768 0.08833000000000002
60.8025 0.061670000000000114
61.1281 0.07000000000000006
61.4517 0.06333000000000011
61.7773 0.06500000000000017
62.1029 0.06833
62.4286 0.09167000000000014
62.752 0.08000000000000007
63.0776 0.07000000000000006
63.4032 0.08833000000000002
63.7267 0.07333000000000012
64.0522 0.06000000000000005
64.3778 0.08333000000000013
64.7012 0.05667
65.0267 0.07000000000000006
65.3523 0.08167000000000013
65.6778 0.07000000000000006
66.0011 0.08500000000000019
66.3266 0.07667000000000002
66.6521 0.07500000000000018
66.9754 0.07833000000000001
67.3009 0.08000000000000007
67.6263 0.08833000000000002
67.9496 0.07333000000000012
68.275 0.10333000000000014
68.6005 0.09833000000000003
68.9237 0.1100000000000001
69.2491 0.10167000000000015
69.5745 0.10833000000000004
69.8977 0.11499999999999999
70.2231 0.10833000000000004
70.5463 0.13000000000000012
70.8716 0.12500000000000022
71.1969 0.13166999999999995
71.5201 0.1533300000000002
71.8454 0.14500000000000024
72.1707 0.1866700000000001
72.4938 0.21500000000000008
72.8191 0.23333000000000026
73.1443 0.2916700000000001
73.4674 0.33667
73.7927 0.3899999999999999
74.1157 0.47
74.4409 0.5050000000000001
74.7661 0.58667
75.0892 0.6683300000000003
75.4144 0.64333
75.7395 0.6050000000000002
76.0625 0.6116699999999999
76.3877 0.60667
76.7107 0.5716699999999999
77.0358 0.5400000000000003
77.3609 0.48167000000000004
77.6839 0.42999999999999994
78.0089 0.39332999999999996
78.3319 0.30000000000000004
78.6569 0.2849999999999999
78.9798 0.21666999999999992
79.3049 0.20167000000000024
79.6299 0.18333
79.9528 0.13333000000000017
80.2778 0.10667000000000004
80.6006 0.11166999999999994
80.9256 0.09000000000000008
81.2506 0.07667000000000002
81.5734 0.07833000000000001
81.8984 0.07500000000000018
82.2212 0.06500000000000017
82.5461 0.050000000000000044
82.8689 0.05500000000000016
83.1938 0.05500000000000016
83.5165 0.051670000000000105
83.8414 0.05667
84.1663 0.050000000000000044
84.489 0.048330000000000206
84.8139 0.05500000000000016
85.1366 0.040000000000000036
85.4614 0.04666999999999999
85.7841 0.0383300000000002
86.1089 0.048330000000000206
86.4315 0.048330000000000206
86.7563 0.03333000000000008
87.0789 0.04333000000000009
87.4037 0.03167000000000009
87.7263 0.048330000000000206
88.051 0.041670000000000096
88.3736 0.020000000000000018
88.6983 0.026670000000000194
89.0209 0.02833000000000019
89.3456 0.025000000000000133
89.6681 0.03333000000000008
89.9928 0.025000000000000133
90.3153 0.03167000000000009
90.64 0.0383300000000002
90.9625 0.03167000000000009
91.2871 0.030000000000000027
91.6096 0.03500000000000014
91.9342 0.0383300000000002
92.2566 0.03500000000000014
92.5812 0.020000000000000018
92.9036 0.03333000000000008
93.2282 0.041670000000000096
93.5506 0.04500000000000015
93.8751 0.048330000000000206
94.1975 0.02833000000000019
94.522 0.0383300000000002
94.8444 0.0366700000000002
95.1689 0.03500000000000014
95.4912 0.025000000000000133
95.8157 0.03500000000000014
96.138 0.03167000000000009
96.4603 0.02833000000000019
96.7848 0.026670000000000194
97.107 0.03500000000000014
97.4314 0.025000000000000133
97.7537 0.02833000000000019
98.0781 0.026670000000000194
98.4003 0.01833000000000018
98.7247 0.026670000000000194
99.0469 0.021670000000000078
99.3691 0.048330000000000206
99.6935 0.0383300000000002
100.016 0.01833000000000018
100.34 0.01833000000000018
100.662 0.030000000000000027
100.986 0.04666999999999999
101.309 0.04333000000000009
101.631 0.03500000000000014
101.955 0.04500000000000015
102.277 0.0533300000000001
102.601 0.040000000000000036
102.923 0.05832999999999999
103.245 0.051670000000000105
103.57 0.07167000000000012
103.892 0.06333000000000011
104.216 0.07667000000000002
104.538 0.06667000000000001
104.86 0.09167000000000014
105.184 0.07500000000000018
105.506 0.08000000000000007
105.828 0.09833000000000003
106.152 0.06833
106.474 0.07500000000000018
106.798 0.10000000000000009
107.12 0.0366700000000002
107.442 0.06333000000000011
107.766 0.061670000000000114
108.088 0.05667
108.41 0.051670000000000105
108.734 0.04500000000000015
109.056 0.04666999999999999
109.378 0.015000000000000124
109.702 0.050000000000000044
110.024 0.040000000000000036
110.347 0.02833000000000019
110.669 0.03333000000000008
110.991 0.03167000000000009
111.315 0.03167000000000009
111.637 0.03333000000000008
111.959 0.0366700000000002
112.282 0.03167000000000009
112.604 0.020000000000000018
112.926 0.026670000000000194
113.25 0.016670000000000185
113.572 0.03500000000000014
113.893 0.03500000000000014
114.215 0.02833000000000019
114.539 0.016670000000000185
114.86 0.020000000000000018
115.182 0.003330000000000055
115.506 0.021670000000000078
115.828 0.013330000000000064
116.149 0.023330000000000073
116.473 0.00833000000000017
116.795 0.015000000000000124
117.116 0.023330000000000073
117.44 0.016670000000000185
117.761 0.021670000000000078
118.083 0.040000000000000036
118.405 0.025000000000000133
118.728 0.021670000000000078
119.05 0.01833000000000018
119.371 0.00833000000000017
119.693 0.0383300000000002
120.016 0.021670000000000078
120.338 0.013330000000000064
120.659 0.01833000000000018
120.983 0.016670000000000185
121.304 0.01833000000000018
121.626 0.03167000000000009
121.947 0.013330000000000064
122.271 0.01833000000000018
122.592 0.03500000000000014
122.914 0.03167000000000009
123.235 0.03167000000000009
123.559 0.03167000000000009
123.88 0.01167000000000007
124.201 0.0366700000000002
124.523 0.025000000000000133
124.846 0.023330000000000073
125.167 0.040000000000000036
125.489 0.04500000000000015
125.81 0.04333000000000009
126.131 0.0366700000000002
126.455 0.030000000000000027
126.776 0.0383300000000002
127.097 0.06000000000000005
127.418 0.05667
127.742 0.06333000000000011
128.063 0.07167000000000012
128.384 0.08500000000000019
128.705 0.07000000000000006
129.027 0.07000000000000006
129.35 0.07167000000000012
129.671 0.07167000000000012
129.992 0.06500000000000017
130.313 0.06667000000000001
130.634 0.06333000000000011
130.958 0.05832999999999999
131.279 0.05500000000000016
131.6 0.05500000000000016
131.921 0.041670000000000096
132.242 0.04333000000000009
132.563 0.04333000000000009
132.886 0.030000000000000027
133.207 0.030000000000000027
133.528 0.03333000000000008
133.849 0.021670000000000078
134.17 0.030000000000000027
134.491 0.03167000000000009
134.815 0.023330000000000073
135.136 0.016670000000000185
135.457 0.03500000000000014
135.777 0.048330000000000206
136.098 0.030000000000000027
136.419 0.021670000000000078
136.74 0.020000000000000018
137.063 0.016670000000000185
137.384 0.03167000000000009
137.705 0.03167000000000009
138.026 0.021670000000000078
138.347 0.03500000000000014
138.668 0.020000000000000018
138.989 0.03167000000000009
139.309 0.025000000000000133
139.632 0.016670000000000185
139.953 0.030000000000000027
140.274 0.023330000000000073
140.595 0.03500000000000014
140.916 0.026670000000000194
141.236 0.03167000000000009
141.557 0.030000000000000027
141.878 0.05832999999999999
142.199 0.04666999999999999
142.521 0.051670000000000105
142.842 0.04500000000000015
143.163 0.041670000000000096
143.483 0.03500000000000014
143.804 0.023330000000000073
144.125 0.04666999999999999
144.445 0.0366700000000002
144.766 0.04666999999999999
145.087 0.016670000000000185
145.407 0.03167000000000009
145.728 0.01833000000000018
146.049 0.023330000000000073
146.371 0.021670000000000078
146.692 0.021670000000000078
147.012 0.0366700000000002
147.333 0.013330000000000064
147.654 0.026670000000000194
147.974 0.02833000000000019
148.295 0.016670000000000185
148.615 0.021670000000000078
148.936 0.016670000000000185
149.256 0.01167000000000007
149.577 0.03500000000000014
149.897 0.00833000000000017
150.218 0.013330000000000064
150.538 0.01167000000000007
150.858 0.016670000000000185
151.179 0.016670000000000185
151.499 0.015000000000000124
151.82 0.00833000000000017
152.14 0.015000000000000124
152.46 0.0
152.781 0.01167000000000007
153.101 0.026670000000000194
153.422 0.015000000000000124
153.742 0.023330000000000073
154.062 0.023330000000000073
154.382 0.023330000000000073
154.703 0.0050000000000001155
155.023 0.006670000000000176
155.343 0.026670000000000194
155.664 0.03500000000000014
155.984 0.015000000000000124
156.304 0.01833000000000018
156.624 0.020000000000000018
156.945 0.01167000000000007
157.265 0.026670000000000194
157.585 0.030000000000000027
157.905 0.01833000000000018
158.225 0.03167000000000009
158.546 0.023330000000000073
158.866 0.023330000000000073
159.186 0.020000000000000018
159.506 0.03167000000000009
159.826 0.03500000000000014
160.146 0.025000000000000133
160.466 0.040000000000000036
160.786 0.03500000000000014
161.107 0.03500000000000014
161.427 0.04500000000000015
161.747 0.048330000000000206
162.067 0.041670000000000096
162.387 0.048330000000000206
162.707 0.0533300000000001
163.027 0.04666999999999999
163.347 0.07667000000000002
163.665 0.05500000000000016
163.985 0.05832999999999999
164.305 0.07667000000000002
164.625 0.08000000000000007
164.945 0.06500000000000017
165.265 0.061670000000000114
165.584 0.06667000000000001
165.904 0.09000000000000008
166.224 0.04333000000000009
166.544 0.05832999999999999
166.864 0.0533300000000001
167.184 0.06667000000000001
167.502 0.06833
167.822 0.030000000000000027
168.141 0.05832999999999999
168.461 0.05832999999999999
168.781 0.0383300000000002
169.101 0.06333000000000011
169.421 0.04333000000000009
169.74 0.040000000000000036
170.06 0.041670000000000096
170.378 0.0366700000000002
170.698 0.04333000000000009
171.017 0.04666999999999999
171.337 0.03333000000000008
171.657 0.03333000000000008
171.977 0.04333000000000009
172.296 0.03167000000000009
172.616 0.025000000000000133
172.934 0.040000000000000036
173.253 0.04500000000000015
173.573 0.025000000000000133
173.892 0.03500000000000014
174.212 0.04500000000000015
174.532 0.0366700000000002
174.851 0.01833000000000018
175.169 0.025000000000000133
175.488 0.0366700000000002
175.808 0.0366700000000002
176.128 0.048330000000000206
176.447 0.03500000000000014
176.767 0.020000000000000018
177.084 0.0050000000000001155
177.404 0.0050000000000001155
177.723 0.01167000000000007
178.043 0.020000000000000018
178.362 0.030000000000000027
178.679 0.016670000000000185
178.999 0.0
179.318 0.013330000000000064
179.638 0.025000000000000133
179.957 0.021670000000000078
180.275 0.021670000000000078
180.594 0.020000000000000018
180.913 0.03167000000000009
181.233 0.010000000000000009
181.552 0.02833000000000019
181.869 0.020000000000000018
182.189 0.010000000000000009
182.508 0.03500000000000014
182.828 0.01833000000000018
183.147 0.0050000000000001155
183.464 0.01833000000000018
183.783 0.020000000000000018
184.103 0.015000000000000124
184.422 0.01167000000000007
184.739 0.02833000000000019
185.058 0.01833000000000018
185.378 0.006670000000000176
185.697 0.020000000000000018
186.014 0.023330000000000073
186.333 0.026670000000000194
186.652 0.021670000000000078
186.972 0.01167000000000007
187.289 0.023330000000000073
187.608 0.015000000000000124
187.927 0.03167000000000009
188.246 0.01833000000000018
188.563 0.016670000000000185
188.882 0.010000000000000009
189.201 0.01167000000000007
189.521 0.016670000000000185
189.838 0.010000000000000009
190.157 0.021670000000000078
190.476 0.030000000000000027
190.793 0.01833000000000018
191.112 0.03500000000000014
191.431 0.013330000000000064
191.75 0.03167000000000009
192.067 0.016670000000000185
192.386 0.016670000000000185
192.705 0.021670000000000078
193.022 0.02833000000000019
193.341 0.021670000000000078
193.66 0.020000000000000018
193.978 0.015000000000000124
194.295 0.020000000000000018
194.614 0.0050000000000001155
194.933 0.02833000000000019
195.25 0.03500000000000014
195.569 0.03167000000000009
195.888 0.041670000000000096
196.205 0.023330000000000073
196.523 0.025000000000000133
196.842 0.026670000000000194
197.159 0.026670000000000194
197.478 0.006670000000000176
197.797 0.01833000000000018
198.113 0.025000000000000133
198.432 0.021670000000000078
198.751 0.013330000000000064
199.068 0.013330000000000064
199.386 0.015000000000000124
199.705 0.030000000000000027
200.022 0.03333000000000008
200.341 0.016670000000000185
200.657 0.021670000000000078
200.976 0.025000000000000133
201.295 0.030000000000000027
201.611 0.013330000000000064
201.93 0.030000000000000027
202.248 0.020000000000000018
202.565 0.015000000000000124
202.884 0.023330000000000073
203.202 0.020000000000000018
203.519 0.02833000000000019
203.837 0.020000000000000018
204.154 0.013330000000000064
204.473 0.025000000000000133
204.791 0.03500000000000014
205.108 0.023330000000000073
205.426 0.01167000000000007
205.743 0.0050000000000001155
206.061 0.00833000000000017
206.38 0.021670000000000078
206.696 0.003330000000000055
207.015 0.02833000000000019
207.331 0.026670000000000194
207.649 0.006670000000000176
207.966 0.026670000000000194
208.284 0.01167000000000007
208.603 0.025000000000000133
208.919 0.020000000000000018
209.238 0.03500000000000014
209.554 0.021670000000000078
209.872 0.025000000000000133
210.189 0.0383300000000002
210.507 0.0016700000000000603
210.825 0.03333000000000008
211.142 0.0366700000000002
211.46 0.015000000000000124
211.776 0.01833000000000018
212.095 0.020000000000000018
212.411 0.00833000000000017
212.729 0.0366700000000002
213.045 0.025000000000000133
213.364 0.041670000000000096
213.682 0.01167000000000007
213.998 0.040000000000000036
214.316 0.026670000000000194
214.632 0.03500000000000014
214.951 0.013330000000000064
215.267 0.0383300000000002
215.585 0.030000000000000027
215.901 0.026670000000000194
216.219 0.041670000000000096
216.535 0.03500000000000014
216.854 0.03333000000000008
217.17 0.0383300000000002
217.488 0.016670000000000185
217.804 0.0383300000000002
218.122 0.023330000000000073
218.438 0.03333000000000008
218.756 0.023330000000000073
219.072 0.030000000000000027
219.39 0.02833000000000019
219.706 0.025000000000000133
220.024 0.02833000000000019
220.34 0.048330000000000206
220.658 0.0366700000000002
220.974 0.030000000000000027
221.292 0.03167000000000009
221.608 0.03167000000000009
221.926 0.03167000000000009
222.242 0.020000000000000018
222.558 0.041670000000000096
222.876 0.041670000000000096
223.191 0.03167000000000009
223.509 0.021670000000000078
223.825 0.04666999999999999
224.143 0.05500000000000016
224.459 0.04333000000000009
224.777 0.0533300000000001
225.093 0.0383300000000002
225.411 0.04666999999999999
225.726 0.04666999999999999
226.042 0.048330000000000206
226.36 0.03167000000000009
226.676 0.04666999999999999
226.993 0.05500000000000016
227.309 0.051670000000000105
227.627 0.04333000000000009
227.943 0.07500000000000018
228.258 0.04666999999999999
228.576 0.048330000000000206
228.892 0.06500000000000017
229.21 0.05667
229.525 0.05667
229.841 0.051670000000000105
230.159 0.07500000000000018
230.474 0.051670000000000105
230.792 0.05500000000000016
231.107 0.06500000000000017
231.423 0.07833000000000001
231.741 0.0533300000000001
232.056 0.05832999999999999
232.374 0.06000000000000005
232.689 0.07667000000000002
233.005 0.08167000000000013
233.322 0.05667
233.638 0.07333000000000012
233.953 0.07333000000000012
234.271 0.07333000000000012
234.586 0.08667000000000002
234.904 0.07000000000000006
235.219 0.09333000000000014
235.535 0.05832999999999999
235.852 0.08833000000000002
236.168 0.07333000000000012
236.483 0.07500000000000018
236.801 0.07000000000000006
237.116 0.07333000000000012
237.431 0.07667000000000002
237.749 0.07500000000000018
238.064 0.07500000000000018
238.38 0.08167000000000013
238.697 0.07167000000000012
239.012 0.08333000000000013
239.328 0.07500000000000018
239.645 0.07000000000000006
239.96 0.07000000000000006
240.276 0.06500000000000017
240.593 0.05500000000000016
240.908 0.07333000000000012
241.223 0.06667000000000001
241.541 0.07667000000000002
241.856 0.06667000000000001
242.171 0.06000000000000005
242.488 0.05500000000000016
242.804 0.07000000000000006
243.119 0.051670000000000105
243.434 0.05667
243.751 0.05500000000000016
244.066 0.0533300000000001
244.382 0.041670000000000096
244.699 0.0533300000000001
245.014 0.0366700000000002
245.329 0.03333000000000008
245.644 0.040000000000000036
245.961 0.0383300000000002
246.276 0.048330000000000206
246.591 0.04500000000000015
246.908 0.04500000000000015
247.223 0.04333000000000009
247.538 0.0533300000000001
247.854 0.051670000000000105
248.171 0.0383300000000002
248.486 0.040000000000000036
248.801 0.030000000000000027
249.116 0.04500000000000015
249.433 0.03167000000000009
249.748 0.05832999999999999
250.062 0.051670000000000105
250.377 0.04666999999999999
250.694 0.041670000000000096
251.009 0.040000000000000036
251.324 0.04500000000000015
251.639 0.04666999999999999
251.954 0.050000000000000044
252.271 0.0366700000000002
252.586 0.021670000000000078
252.901 0.0383300000000002
253.215 0.041670000000000096
253.532 0.03167000000000009
253.847 0.0366700000000002
254.162 0.03167000000000009
254.477 0.04666999999999999
254.792 0.0383300000000002
255.108 0.03333000000000008
255.423 0.026670000000000194
255.738 0.02833000000000019
256.053 0.04500000000000015
256.367 0.030000000000000027
256.684 0.03500000000000014
256.999 0.021670000000000078
257.314 0.03167000000000009
257.628 0.02833000000000019
257.943 0.026670000000000194
258.258 0.03500000000000014
258.574 0.026670000000000194
258.889 0.0383300000000002
259.204 0.026670000000000194
259.518 0.01833000000000018
259.833 0.030000000000000027
260.147 0.016670000000000185
260.464 0.04333000000000009
260.779 0.030000000000000027
261.093 0.026670000000000194
261.408 0.023330000000000073
261.722 0.030000000000000027
262.037 0.04333000000000009
262.351 0.02833000000000019
262.668 0.03167000000000009
262.982 0.03167000000000009
263.297 0.015000000000000124
263.611 0.016670000000000185
263.926 0.020000000000000018
264.24 0.02833000000000019
264.555 0.016670000000000185
264.871 0.02833000000000019
265.186 0.020000000000000018
265.5 0.0383300000000002
265.815 0.010000000000000009
266.129 0.041670000000000096
266.443 0.0366700000000002
266.758 0.030000000000000027
267.072 0.020000000000000018
267.386 0.0366700000000002
267.701 0.0366700000000002
268.017 0.01833000000000018
268.331 0.04500000000000015
268.646 0.025000000000000133
268.96 0.03500000000000014
269.274 0.050000000000000044
269.589 0.050000000000000044
269.903 0.025000000000000133
270.217 0.026670000000000194
270.531 0.0383300000000002
270.846 0.02833000000000019
271.16 0.04666999999999999
271.474 0.050000000000000044
271.79 0.0366700000000002
272.105 0.05832999999999999
272.419 0.0383300000000002
272.733 0.0383300000000002
273.047 0.041670000000000096
273.361 0.03333000000000008
273.675 0.05667
273.989 0.03333000000000008
274.304 0.04666999999999999
274.618 0.061670000000000114
274.932 0.05500000000000016
275.246 0.041670000000000096
275.56 0.04666999999999999
275.874 0.061670000000000114
276.188 0.04500000000000015
276.502 0.04500000000000015
276.816 0.051670000000000105
277.13 0.03333000000000008
277.444 0.0366700000000002
277.758 0.048330000000000206
278.072 0.061670000000000114
278.386 0.0533300000000001
278.7 0.051670000000000105
279.014 0.0366700000000002
279.328 0.041670000000000096
279.642 0.040000000000000036
279.956 0.03500000000000014
280.27 0.026670000000000194
280.584 0.0366700000000002
280.897 0.0366700000000002
281.211 0.026670000000000194
281.525 0.040000000000000036
281.839 0.03167000000000009
282.153 0.03500000000000014
282.467 0.048330000000000206
282.781 0.030000000000000027
283.094 0.0383300000000002
283.408 0.025000000000000133
283.722 0.03333000000000008
284.036 0.048330000000000206
284.35 0.025000000000000133
284.663 0.05832999999999999
284.977 0.03167000000000009
285.291 0.03167000000000009
285.605 0.03167000000000009
285.918 0.025000000000000133
286.232 0.03500000000000014
286.546 0.040000000000000036
286.859 0.025000000000000133
287.171 0.03167000000000009
287.485 0.040000000000000036
287.798 0.020000000000000018
288.112 0.023330000000000073
288.426 0.03500000000000014
288.739 0.023330000000000073
289.053 0.021670000000000078
289.366 0.020000000000000018
289.68 0.03167000000000009
289.994 0.026670000000000194
290.307 0.040000000000000036
290.621 0.030000000000000027
290.934 0.03333000000000008
291.246 0.04666999999999999
291.559 0.02833000000000019
291.873 0.030000000000000027
292.186 0.0366700000000002
292.5 0.04500000000000015
292.813 0.040000000000000036
293.127 0.030000000000000027
293.44 0.03500000000000014
293.754 0.0383300000000002
294.065 0.03167000000000009
294.378 0.0366700000000002
294.692 0.04500000000000015
295.005 0.03333000000000008
295.319 0.040000000000000036
295.632 0.026670000000000194
295.945 0.025000000000000133
296.259 0.040000000000000036
296.57 0.02833000000000019
296.883 0.03500000000000014
297.197 0.04333000000000009
297.51 0.03167000000000009
297.823 0.021670000000000078
298.137 0.04333000000000009
298.45 0.050000000000000044
298.761 0.040000000000000036
299.074 0.01833000000000018
299.388 0.0383300000000002
299.701 0.03167000000000009
300.014 0.03167000000000009
300.327 0.025000000000000133
300.639 0.02833000000000019
300.952 0.0383300000000002
301.265 0.023330000000000073
301.578 0.03167000000000009
301.891 0.03167000000000009
302.202 0.0383300000000002
302.516 0.041670000000000096
302.829 0.040000000000000036
303.142 0.021670000000000078
303.455 0.03167000000000009
303.766 0.048330000000000206
304.079 0.03333000000000008
304.392 0.021670000000000078
304.705 0.021670000000000078
305.018 0.03333000000000008
305.329 0.030000000000000027
305.642 0.03500000000000014
305.955 0.051670000000000105
306.268 0.040000000000000036
306.582 0.025000000000000133
306.892 0.03167000000000009
307.205 0.041670000000000096
307.518 0.03333000000000008
307.831 0.0383300000000002
308.142 0.041670000000000096
308.455 0.025000000000000133
308.768 0.041670000000000096
309.081 0.040000000000000036
309.392 0.03500000000000014
309.705 0.03500000000000014
310.018 0.030000000000000027
310.331 0.03167000000000009
310.641 0.04500000000000015
310.954 0.0533300000000001
311.267 0.0383300000000002
311.58 0.0366700000000002
311.891 0.0383300000000002
312.204 0.051670000000000105
312.516 0.030000000000000027
312.829 0.0366700000000002
313.14 0.0383300000000002
313.453 0.0366700000000002
313.766 0.05667
314.076 0.04333000000000009
314.389 0.05667
314.702 0.050000000000000044
315.014 0.050000000000000044
315.325 0.0366700000000002
315.638 0.048330000000000206
315.951 0.06333000000000011
316.261 0.061670000000000114
316.574 0.07500000000000018
316.886 0.0533300000000001
317.197 0.048330000000000206
317.51 0.05667
317.822 0.05500000000000016
318.133 0.05832999999999999
318.445 0.061670000000000114
318.758 0.07167000000000012
319.069 0.06667000000000001
319.381 0.07500000000000018
319.694 0.05832999999999999
320.004 0.08000000000000007
320.317 0.07833000000000001
320.629 0.06333000000000011
320.94 0.07333000000000012
321.252 0.07500000000000018
321.565 0.08833000000000002
321.875 0.09833000000000003
322.188 0.09167000000000014
322.5 0.09333000000000014
322.811 0.08333000000000013
323.123 0.08500000000000019
323.436 0.0950000000000002
323.746 0.11333000000000015
324.058 0.1100000000000001
324.369 0.10833000000000004
324.681 0.11833000000000005
324.993 0.11833000000000005
325.304 0.1100000000000001
325.616 0.10833000000000004
325.928 0.12332999999999994
326.239 0.12332999999999994
326.551 0.1366700000000003
326.861 0.13166999999999995
327.174 0.12167000000000017
327.486 0.135
327.796 0.11499999999999999
328.108 0.1050000000000002
328.419 0.1100000000000001
328.731 0.11999999999999988
329.043 0.1100000000000001
329.353 0.13166999999999995
329.666 0.12667000000000006
329.976 0.1050000000000002
330.288 0.12167000000000017
330.598 0.11833000000000005
330.91 0.1100000000000001
331.223 0.10167000000000015
331.533 0.10000000000000009
331.845 0.10000000000000009
332.155 0.11333000000000015
332.467 0.1050000000000002
332.777 0.08333000000000013
333.089 0.11667000000000027
333.401 0.1100000000000001
333.711 0.10000000000000009
334.023 0.07667000000000002
334.333 0.08667000000000002
334.645 0.08333000000000013
334.955 0.08333000000000013
335.267 0.08167000000000013
335.577 0.10667000000000004
335.889 0.0950000000000002
336.199 0.08500000000000019
336.511 0.08167000000000013
336.821 0.08667000000000002
337.133 0.08000000000000007
337.443 0.07833000000000001
337.755 0.09333000000000014
338.065 0.09167000000000014
338.377 0.10333000000000014
338.687 0.07500000000000018
338.999 0.09333000000000014
339.311 0.08333000000000013
339.621 0.09000000000000008
339.93 0.1050000000000002
340.242 0.09000000000000008
340.552 0.10167000000000015
340.864 0.0950000000000002
341.174 0.10833000000000004
341.485 0.11333000000000015
341.795 0.061670000000000114
342.107 0.09667000000000003
342.417 0.09333000000000014
342.729 0.09000000000000008
343.038 0.08833000000000002
343.35 0.1100000000000001
343.66 0.10667000000000004
343.971 0.10667000000000004
344.281 0.08500000000000019
344.593 0.08667000000000002
344.903 0.10167000000000015
345.214 0.1050000000000002
345.524 0.07833000000000001
345.833 0.07667000000000002
346.145 0.09667000000000003
346.455 0.10167000000000015
346.766 0.10667000000000004
347.076 0.10333000000000014
347.388 0.09667000000000003
347.697 0.0950000000000002
348.007 0.11166999999999994
348.318 0.08167000000000013
348.628 0.08167000000000013
348.939 0.07833000000000001
349.249 0.10000000000000009
349.561 0.08500000000000019
349.87 0.08833000000000002
350.179 0.10333000000000014
350.491 0.10167000000000015
350.8 0.09833000000000003
351.112 0.10333000000000014
351.421 0.10333000000000014
351.731 0.09667000000000003
352.042 0.10000000000000009
352.352 0.09167000000000014
352.663 0.09667000000000003
352.973 0.10667000000000004
353.282 0.09000000000000008
353.593 0.08000000000000007
353.903 0.09000000000000008
354.212 0.1050000000000002
354.523 0.10000000000000009
354.833 0.1050000000000002
355.144 0.10000000000000009
355.453 0.08667000000000002
355.763 0.10667000000000004
356.074 0.08833000000000002
356.383 0.10000000000000009
356.693 0.08167000000000013
357.004 0.08667000000000002
357.313 0.1050000000000002
357.622 0.09667000000000003
357.934 0.09167000000000014
358.243 0.08000000000000007
358.552 0.09333000000000014
358.863 0.06333000000000011
359.172 0.09000000000000008
359.482 0.08333000000000013
359.793 0.08667000000000002
360.102 0.10333000000000014
360.411 0.09333000000000014
360.722 0.0950000000000002
361.031 0.10333000000000014
361.34 0.07667000000000002
361.652 0.08833000000000002
361.961 0.09167000000000014
362.27 0.09000000000000008
362.581 0.09333000000000014
362.89 0.09167000000000014
363.199 0.08500000000000019
363.51 0.08000000000000007
363.819 0.10000000000000009
364.128 0.09833000000000003
364.437 0.09167000000000014
364.748 0.09000000000000008
365.057 0.09167000000000014
365.366 0.09667000000000003
365.677 0.08667000000000002
365.986 0.08500000000000019
366.295 0.08833000000000002
366.604 0.0950000000000002
366.915 0.11499999999999999
367.224 0.09333000000000014
367.533 0.07333000000000012
367.841 0.09333000000000014
368.152 0.09667000000000003
368.461 0.07333000000000012
368.77 0.08167000000000013
369.079 0.06500000000000017
369.39 0.09333000000000014
369.699 0.09333000000000014
370.007 0.10167000000000015
370.316 0.09167000000000014
370.627 0.08667000000000002
370.936 0.09167000000000014
371.245 0.09167000000000014
371.553 0.09667000000000003
371.864 0.08667000000000002
372.173 0.0950000000000002
372.482 0.09833000000000003
372.79 0.09167000000000014
373.099 0.10167000000000015
373.41 0.09167000000000014
373.718 0.08667000000000002
374.027 0.08167000000000013
374.336 0.10000000000000009
374.644 0.09833000000000003
374.955 0.0950000000000002
375.264 0.10333000000000014
375.572 0.10667000000000004
375.881 0.10833000000000004
376.19 0.10167000000000015
376.5 0.09000000000000008
376.809 0.11833000000000005
377.117 0.08500000000000019
377.426 0.1050000000000002
377.734 0.11499999999999999
378.043 0.10167000000000015
378.354 0.1050000000000002
378.662 0.08667000000000002
378.971 0.08667000000000002
379.279 0.10000000000000009
379.588 0.12167000000000017
379.896 0.10833000000000004
380.207 0.12332999999999994
380.515 0.10167000000000015
380.823 0.10667000000000004
381.132 0.11499999999999999
381.44 0.10167000000000015
381.749 0.11333000000000015
382.057 0.11499999999999999
382.368 0.1366700000000003
382.676 0.10833000000000004
382.984 0.11499999999999999
383.293 0.14167000000000018
383.601 0.12500000000000022
383.909 0.11999999999999988
384.218 0.11833000000000005
384.526 0.09333000000000014
384.836 0.11333000000000015
385.145 0.10667000000000004
385.453 0.09167000000000014
385.761 0.10833000000000004
386.07 0.14167000000000018
386.378 0.12500000000000022
386.686 0.12332999999999994
386.994 0.135
387.302 0.12833000000000028
387.611 0.1533300000000002
387.921 0.1533300000000002
388.229 0.14500000000000024
388.537 0.1666700000000001
388.846 0.1483300000000003
389.154 0.13000000000000012
389.462 0.14332999999999996
389.77 0.15166999999999997
390.078 0.1399999999999999
390.386 0.12833000000000028
390.694 0.15500000000000003
391.002 0.16332999999999998
391.311 0.1566700000000003
391.619 0.14500000000000024
391.927 0.15000000000000013
392.237 0.13000000000000012
392.545 0.15833000000000008
392.853 0.1533300000000002
393.161 0.14500000000000024
393.469 0.14332999999999996
393.777 0.1533300000000002
394.085 0.12833000000000028
394.393 0.13833000000000006
394.701 0.1566700000000003
395.009 0.1683300000000003
395.317 0.15500000000000003
395.625 0.14667000000000008
395.933 0.17999999999999994
396.241 0.15833000000000008
396.549 0.19333000000000022
396.856 0.1733300000000002
397.164 0.1866700000000001
397.472 0.1866700000000001
397.78 0.1783300000000001
398.088 0.16332999999999998
398.396 0.19999999999999996
398.704 0.20333
399.012 0.18167000000000022
399.319 0.19167
399.627 0.20667000000000013
399.935 0.21333000000000024
400.243 0.19500000000000006
400.551 0.1966699999999999
400.858 0.21666999999999992
401.166 0.20667000000000013
401.474 0.1883299999999999
401.782 0.23666999999999994
402.089 0.20333
402.397 0.2250000000000003
402.705 0.2100000000000002
403.012 0.21999999999999997
403.32 0.23333000000000026
403.626 0.23167000000000004
403.933 0.23167000000000004
404.241 0.22832999999999992
404.549 0.2300000000000002
404.856 0.2716700000000001
405.164 0.2250000000000003
405.472 0.2666700000000002
405.779 0.24333000000000005
406.087 0.2649999999999999
406.394 0.2500000000000002
406.702 0.26832999999999996
407.009 0.26832999999999996
407.317 0.2500000000000002
407.625 0.3033300000000001
407.932 0.2716700000000001
408.238 0.30833
408.545 0.28833
408.853 0.31667
409.16 0.27500000000000013
409.468 0.32667000000000024
409.775 0.33833000000000024
410.082 0.33167000000000013
410.39 0.345
410.697 0.31667
411.005 0.3533299999999999
411.31 0.36833000000000005
411.618 0.3866700000000003
411.925 0.36333000000000015
412.232 0.405
412.54 0.405
412.847 0.4033300000000002
413.154 0.4383299999999999
413.462 0.42167
413.767 0.4083300000000001
414.074 0.4466699999999999
414.382 0.4383299999999999
414.689 0.4750000000000003
414.996 0.4466699999999999
415.304 0.4850000000000001
415.611 0.51833
415.916 0.5149999999999999
416.223 0.5349999999999999
416.531 0.58667
416.838 0.57833
417.145 0.6083300000000003
417.452 0.5883300000000002
417.757 0.64333
418.065 0.6199999999999999
418.372 0.6616700000000002
418.679 0.6233299999999999
418.986 0.6483300000000003
419.291 0.6766699999999999
419.598 0.6783300000000001
419.906 0.7350000000000001
420.213 0.7416700000000003
420.52 0.7700000000000002
420.825 0.7133300000000002
421.132 0.7616700000000003
421.439 0.79667
421.746 0.78833
422.053 0.8383300000000002
422.358 0.845
422.665 0.8633300000000002
422.972 0.8150000000000002
423.279 0.8750000000000002
423.586 0.8633300000000002
423.891 0.86833
424.198 0.9150000000000003
424.505 0.9150000000000003
424.812 0.9299999999999999
425.117 0.9283300000000001
425.424 0.925
425.731 0.9083300000000001
426.038 0.9866699999999999
426.343 0.9516700000000002
426.65 0.93333
426.956 0.94167
427.263 0.8833300000000002
427.568 0.9550000000000003
427.875 0.90167
428.182 0.9266699999999999
428.489 0.95333
428.793 0.88167
429.1 0.8699999999999999
429.407 0.8800000000000001
429.714 0.9316700000000002
430.019 0.8916700000000002
430.325 0.88167
430.632 0.8466700000000003
430.937 0.8350000000000002
431.244 0.8266700000000002
431.55 0.825
431.857 0.7983300000000002
432.162 0.79667
432.469 0.7933300000000003
432.775 0.7383300000000002
433.08 0.7350000000000001
433.387 0.72
433.693 0.7700000000000002
433.998 0.7133300000000002
434.305 0.675
434.611 0.6900000000000002
434.916 0.68333
435.222 0.6466700000000001
435.529 0.6366700000000003
435.833 0.6566700000000003
436.14 0.6250000000000002
436.447 0.5850000000000002
436.751 0.6216700000000002
437.058 0.51
437.364 0.57833
437.669 0.5549999999999999
437.975 0.50667
438.282 0.5250000000000001
438.586 0.5349999999999999
438.893 0.5000000000000002
439.199 0.4916700000000003
439.504 0.48333000000000026
439.81 0.5050000000000001
440.117 0.47333000000000003
440.421 0.4783299999999999
440.727 0.4466699999999999
441.032 0.45667000000000013
441.338 0.44167
441.645 0.4466699999999999
441.949 0.4099999999999999
442.255 0.4316700000000002
442.562 0.4116700000000002
442.866 0.41500000000000026
443.172 0.4283300000000001
443.477 0.4166700000000001
443.783 0.3966700000000001
444.089 0.3866700000000003
444.394 0.35833000000000026
444.7 0.40166999999999997
445.004 0.3866700000000003
445.31 0.35833000000000026
445.617 0.38166999999999995
445.921 0.4066700000000003
446.227 0.38166999999999995
446.531 0.3983300000000003
446.838 0.38166999999999995
447.142 0.385
447.448 0.36166999999999994
447.754 0.3916700000000002
448.058 0.35833000000000026
448.365 0.3783300000000003
448.669 0.35667000000000004
448.975 0.3699999999999999
449.279 0.36166999999999994
449.585 0.3550000000000002
449.889 0.34833000000000003
450.195 0.3233300000000001
450.499 0.34833000000000003
450.805 0.3116700000000001
451.111 0.3016699999999999
451.416 0.3216699999999999
451.722 0.3016699999999999
452.026 0.30833
452.332 0.2933300000000003
452.636 0.2816700000000003
452.942 0.30833
453.246 0.2783300000000002
453.552 0.25167000000000006
453.856 0.24499999999999988
454.162 0.2716700000000001
454.465 0.25666999999999995
454.771 0.23833000000000015
455.075 0.24832999999999994
455.381 0.24832999999999994
455.685 0.23666999999999994
455.991 0.24832999999999994
456.295 0.25167000000000006
456.601 0.21999999999999997
456.905 0.21333000000000024
457.211 0.22832999999999992
457.514 0.21167000000000002
457.82 0.2083299999999999
458.124 0.22667000000000015
458.43 0.19500000000000006
458.734 0.21999999999999997
459.04 0.21167000000000002
459.343 0.21500000000000008
459.647 0.2050000000000003
459.953 0.19833000000000012
460.257 0.18500000000000028
460.562 0.20333
460.866 0.1883299999999999
461.172 0.1883299999999999
461.476 0.1966699999999999
461.781 0.21333000000000024
462.085 0.19833000000000012
462.389 0.18333
462.694 0.1866700000000001
462.998 0.19000000000000017
463.304 0.19500000000000006
463.607 0.18500000000000028
463.913 0.18167000000000022
464.217 0.19833000000000012
464.52 0.19500000000000006
464.826 0.2083299999999999
465.129 0.20167000000000024
465.435 0.18167000000000022
465.739 0.19167
466.042 0.19500000000000006
466.348 0.1866700000000001
466.651 0.21167000000000002
466.957 0.20333
467.26 0.21333000000000024
467.564 0.2100000000000002
467.869 0.1866700000000001
468.173 0.16500000000000026
468.478 0.19167
468.782 0.1866700000000001
469.085 0.2050000000000003
469.391 0.20667000000000013
469.694 0.1733300000000002
469.997 0.17666999999999988
470.303 0.21333000000000024
470.606 0.2100000000000002
470.912 0.18333
471.215 0.19000000000000017
471.518 0.2100000000000002
471.824 0.20333
472.127 0.19500000000000006
472.431 0.22667000000000015
472.736 0.19833000000000012
473.039 0.22333000000000003
473.342 0.21333000000000024
473.648 0.2350000000000001
473.951 0.21999999999999997
474.254 0.21333000000000024
474.56 0.25167000000000006
474.863 0.22333000000000003
475.166 0.23666999999999994
475.471 0.23833000000000015
475.775 0.22167000000000026
476.078 0.2250000000000003
476.383 0.25666999999999995
476.686 0.23333000000000026
476.99 0.26333000000000006
477.295 0.22832999999999992
477.598 0.2500000000000002
477.901 0.26333000000000006
478.204 0.29500000000000015
478.509 0.28
478.812 0.35667000000000004
479.116 0.3783300000000003
479.421 0.46167
479.724 0.5733300000000001
480.027 0.56667
480.33 0.5716699999999999
480.635 0.5883300000000002
480.938 0.5483300000000002
481.241 0.57833
481.544 0.57833
481.849 0.5683300000000002
482.152 0.5566700000000002
482.455 0.5349999999999999
482.758 0.5200000000000002
483.063 0.5050000000000001
483.366 0.4483300000000001
483.669 0.3783300000000003
483.972 0.3233300000000001
484.277 0.3350000000000002
484.58 0.29000000000000026
484.883 0.29500000000000015
485.186 0.29667
485.491 0.27500000000000013
485.794 0.27666999999999997
486.097 0.29000000000000026
486.4 0.25666999999999995
486.704 0.2816700000000003
487.007 0.24
487.31 0.26333000000000006
487.613 0.25833000000000017
487.916 0.25167000000000006
488.221 0.23167000000000004
488.523 0.2550000000000001
488.826 0.2649999999999999
489.129 0.22832999999999992
489.432 0.20333
489.737 0.21999999999999997
490.039 0.23333000000000026
490.342 0.21999999999999997
490.645 0.21500000000000008
490.947 0.19333000000000022
491.25 0.23167000000000004
491.555 0.22832999999999992
491.858 0.2083299999999999
492.16 0.1866700000000001
492.463 0.21500000000000008
492.766 0.2083299999999999
493.068 0.2083299999999999
493.4375 0.1907301202990044
493.74199999999996 0.1765601202990044
494.0475 0.18239512029900443
494.35249999999996 0.18406512029900426
494.65700000000004 0.16240012029900444
494.9625 0.1757301202990045
495.115 0.16239512029900463
495.41949999999997 0.15323012029900454
495.72450000000003 0.15906012029900432
496.0285 0.16156512029900452
496.3345 0.15906512029900435
496.639 0.15823012029900443
496.9435 0.1415651202990045
497.249 0.1557301202990045
497.55449999999996 0.15073012029900437
497.85900000000004 0.15490012029900438
498.164 0.12990012029900447
498.469 0.1332301202990043
498.774 0.14573012029900448
499.078 0.13823012029900442
499.38300000000004 0.1232301202990044
499.688 0.1473951202990045
499.993 0.14156512029900428
500.298 0.1282301202990044
500.60249999999996 0.12990012029900425
500.908 0.13073012029900435
501.2125 0.11156012029900433
501.5165 0.1282301202990044
501.8215 0.11489512029900442
502.12649999999996 0.10656512029900447
502.4315 0.1282301202990044
502.7355 0.1140601202990045
503.0395 0.1282301202990044
503.345 0.09573012029900443
503.6495 0.11906512029900443
503.95399999999995 0.10906012029900439
504.259 0.11073012029900434
504.5645 0.10073012029900444
504.869 0.1182301202990044
505.173 0.0948951202990044
505.477 0.09406012029900448
505.78200000000004 0.0974001202990045
506.087 0.11073012029900434
506.39099999999996 0.1032301202990045
506.69550000000004 0.10156512029900447
506.9995 0.10490012029900445
507.304 0.11073012029900434
507.60900000000004 0.11990012029900446
507.9135 0.09156512029900446
508.2175 0.08739512029900445
508.5215 0.09156012029900443
508.82550000000003 0.09739512029900435
509.131 0.08573012029900443
509.4355 0.08656512029900446
509.7395 0.09240012029900438
510.0435 0.09656012029900443
510.34749999999997 0.08656512029900434
510.6515 0.08573012029900443
510.957 0.10406512029900453
511.26099999999997 0.0848951202990044
511.565 0.09489512029900452
511.869 0.08906012029900437
512.173 0.08906012029900437
512.4770000000001 0.08989512029900451
512.782 0.09323012029900449
513.086 0.08573012029900443
513.39 0.09740012029900438
513.694 0.09906512029900441
513.998 0.09073012029900443
514.302 0.09739512029900435
514.606 0.08656512029900446
514.9110000000001 0.09656512029900446
515.2149999999999 0.08739512029900445
515.519 0.09323012029900438
515.8230000000001 0.10073012029900444
515.9735000000001 0.10573012029900444
516.2774999999999 0.09490012029900444
516.5815 0.10073012029900444
516.8855000000001 0.10156012029900444
517.1895 0.09406512029900452
517.4935 0.10073012029900444
517.797 0.10156512029900447
518.101 0.10573012029900433
518.405 0.09656012029900443
518.7090000000001 0.1082301202990045
519.0129999999999 0.09989512029900441
519.3165 0.09573012029900443
519.62 0.11073012029900434
519.924 0.10489512029900452
520.2280000000001 0.1032301202990045
520.533 0.1048951202990043
520.8365 0.09906012029900438
521.1405 0.09906512029900441
521.443 0.10906512029900431
521.7465 0.10906512029900442
522.0505 0.10739512029900447
522.3545 0.12073012029900446
522.6575 0.11906012029900451
522.9615 0.10239512029900436
523.2655 0.10240012029900439
523.5685000000001 0.12239512029900437
523.8725 0.10406512029900442
524.1755 0.11406012029900439
524.479 0.12573012029900424
524.7835 0.1240601202990044
525.087 0.10073012029900433
525.3910000000001 0.11073012029900445
525.694 0.12073012029900435
525.998 0.10656512029900447
526.302 0.11656512029900448
526.604 0.11156512029900448
526.908 0.10323012029900439
527.211 0.12156512029900449
527.515 0.11073012029900456
527.818 0.13406512029900444
528.1220000000001 0.11490012029900457
528.4245000000001 0.10656512029900436
528.7280000000001 0.10073012029900444
529.0315 0.1182301202990044
529.3344999999999 0.1282301202990044
529.6385 0.12406512029900443
529.9415 0.11490012029900434
530.2445 0.1290601202990044
530.5475 0.12406012029900429
530.8515 0.12156512029900438
531.1545 0.12656012029900435
531.4580000000001 0.1365651202990044
531.7615 0.11906012029900451
532.0635 0.11740012029900451
532.367 0.12073012029900435
532.6705 0.13656012029900458
532.974 0.1273951202990045
533.277 0.1315651202990045
533.5795 0.11906512029900443
533.883 0.11490012029900434
534.186 0.13573012029900447
534.4894999999999 0.13823012029900442
534.793 0.12323012029900451
535.095 0.12656512029900438
535.3985 0.1340601202990044
535.7015 0.13906512029900456
536.005 0.1332301202990044
536.307 0.13739512029900428
536.6105 0.1374001202990043
536.761 0.13823012029900442
537.0645 0.14739512029900428
537.3665000000001 0.14073012029900459
537.6700000000001 0.15240012029900443
537.973 0.13906512029900434
538.2760000000001 0.13573012029900447
538.577 0.13573012029900447
538.8800000000001 0.1565651202990044
539.1835 0.14989512029900445
539.4870000000001 0.1515651202990043
539.789 0.15406512029900424
540.0920000000001 0.1423951202990044
540.395 0.15489512029900435
540.698 0.16323012029900455
541.0 0.1473951202990045
541.3035 0.14823012029900443
541.6065 0.17656512029900442
541.9085 0.1699001202990045
542.2115 0.18573012029900451
542.5145 0.18406012029900445
542.8164999999999 0.19073012029900438
543.1185 0.18156512029900454
543.4214999999999 0.21406012029900445
543.7245 0.19906512029900436
544.0264999999999 0.1949001202990044
544.3295 0.2065601202990044
544.6324999999999 0.2157301202990043
544.9355 0.23156512029900433
545.2375 0.23323012029900436
545.5395000000001 0.25073012029900443
545.8425 0.2390651202990044
546.144 0.2582301202990043
546.447 0.26573012029900434
546.75 0.2582301202990045
547.052 0.2665651202990045
547.355 0.25239512029900446
547.658 0.27073012029900423
547.9585 0.2798951202990043
548.2615 0.31989512029900435
548.5640000000001 0.3082301202990043
548.866 0.29823012029900453
549.169 0.29073012029900447
549.4715 0.3107301202990045
549.7735 0.3024001202990043
550.0754999999999 0.29989512029900456
550.377 0.30740012029900443
550.6795 0.32740012029900445
550.9825 0.3149001202990045
551.2845 0.29573012029900436
551.5875 0.3115651202990044
551.8895 0.30906512029900424
552.1905 0.2865651202990043
552.4935 0.3007301202990045
552.7950000000001 0.27739512029900437
553.0975000000001 0.27073012029900445
553.4005 0.27073012029900423
553.701 0.2790601202990044
554.0035 0.25990012029900433
554.306 0.25156512029900435
554.608 0.26656012029900444
554.9105 0.26739512029900436
555.212 0.2390651202990044
555.514 0.22740012029900436
555.816 0.23156512029900456
556.1179999999999 0.21406512029900449
556.421 0.1957301202990045
556.722 0.22406512029900427
557.024 0.19156512029900433
557.173 0.1965651202990042
557.4755 0.1957301202990045
557.778 0.19406512029900447
558.0799999999999 0.18989512029900446
558.381 0.18406012029900445
558.6825 0.1657301202990045
558.985 0.16906512029900458
559.2864999999999 0.17239512029900442
559.5889999999999 0.14406012029900442
559.8895 0.15489512029900457
560.192 0.16573012029900427
560.4945 0.14573012029900448
560.796 0.1298951202990042
561.0975000000001 0.14573012029900426
561.3985 0.14823012029900443
561.701 0.14656512029900462
562.0025 0.1374001202990043
562.3035 0.11573012029900434
562.6055 0.13406512029900444
562.9075 0.10656512029900447
563.2085 0.11906512029900432
563.5105 0.11656512029900437
563.8115 0.12656012029900435
564.114 0.12656512029900438
564.415 0.11239512029900448
564.7165 0.10656012029900444
565.018 0.12323012029900451
565.3199999999999 0.10906512029900453
565.6199999999999 0.09739512029900446
565.9225 0.11989512029900443
566.2239999999999 0.1074001202990045
566.526 0.09073012029900443
566.826 0.11656012029900445
567.129 0.09490012029900444
567.4300000000001 0.09490012029900444
567.731 0.10323012029900439
568.0319999999999 0.10406512029900442
568.3340000000001 0.09240012029900449
568.6355000000001 0.09823012029900438
568.9365 0.08573012029900443
569.238 0.09406012029900448
569.54 0.09906512029900441
569.84 0.0898951202990044
570.142 0.0940651202990044
570.4435 0.09073012029900443
570.7435 0.08406512029900451
571.0455 0.08323012029900448
571.3465000000001 0.09573012029900443
571.6475 0.09406012029900437
571.9485 0.09073012029900443
572.2505 0.09906512029900441
572.5505 0.0790651202990044
572.8525 0.07906012029900447
573.1535 0.0790651202990045
573.4535000000001 0.0748951202990045
573.756 0.0890651202990044
574.057 0.07073012029900441
574.358 0.08156012029900442
574.6585 0.07989512029900439
574.9605 0.08073012029900442
575.2605000000001 0.07406012029900447
575.5615 0.07239512029900444
575.8625 0.0848951202990044
576.1635 0.07240012029900447
576.4649999999999 0.06740012029900447
576.765 0.07323012029900436
577.066 0.06573012029900441
577.3679999999999 0.06073012029900439
577.517 0.07740012029900437
577.817 0.07073012029900441
578.1189999999999 0.07656512029900445
578.4185 0.08073012029900442
578.7204999999999 0.06989512029900449
579.021 0.07823012029900436
579.3209999999999 0.0790651202990044
579.623 0.07323012029900447
579.9235 0.07823012029900436
580.2235000000001 0.07323012029900447
580.5255 0.07823012029900436
580.825 0.06489512029900438
581.1265000000001 0.06489512029900438
581.4275 0.06406012029900446
581.7275 0.06823012029900447
582.0285 0.07239512029900444
582.3285000000001 0.07240012029900436
582.6295 0.07156512029900444
582.9300000000001 0.06823012029900435
583.2305 0.06823012029900435
583.5315 0.07823012029900447
583.832 0.06906512029900438
584.1324999999999 0.06739512029900432
584.4324999999999 0.07323012029900436
584.734 0.06656512029900433
585.0335 0.07656512029900445
585.3340000000001 0.07489512029900439
585.636 0.07490012029900442
585.935 0.07323012029900447
586.2360000000001 0.0665601202990044
586.5360000000001 0.0790651202990044
586.837 0.06906512029900438
587.137 0.07156012029900441
587.4369999999999 0.06990012029900441
587.738 0.07323012029900447
588.038 0.07323012029900436
588.338 0.062395120299004424
588.6379999999999 0.07489512029900439
588.9390000000001 0.07239512029900444
589.239 0.07156012029900441
589.539 0.06573012029900441
589.84 0.07490012029900442
590.1405 0.0848951202990045
590.44 0.06739512029900444
590.7405 0.0798951202990045
591.0409999999999 0.07823012029900436
591.3415 0.06406512029900438
591.6405 0.07573012029900442
591.9414999999999 0.06823012029900435
592.2415 0.07156512029900444
592.5419999999999 0.06740012029900447
592.8415 0.07323012029900436
593.1415 0.07323012029900436
593.4425 0.0790651202990045
593.7425000000001 0.0840651202990044
594.0415 0.07573012029900442
594.3420000000001 0.09656512029900446
594.6424999999999 0.08239512029900445
594.9415 0.06906512029900438
595.242 0.07656512029900445
595.5409999999999 0.08740012029900449
595.8415 0.07323012029900436
596.1415 0.0890651202990044
596.442 0.08990012029900443
596.741 0.07573012029900442
597.0415 0.07823012029900447
597.191 0.06989512029900438
597.49 0.0848951202990044
597.7905000000001 0.08323012029900437
598.0895 0.07656012029900441
598.3895 0.08989512029900451
598.689 0.08240012029900437
598.989 0.0848951202990044
599.2895 0.08490012029900443
599.5885000000001 0.08406012029900448
599.8885 0.0940651202990044
600.1875 0.09323012029900449
600.4884999999999 0.08406512029900451
600.7875 0.08406012029900448
601.087 0.09323012029900449
601.3875 0.10323012029900439
601.6865 0.0948951202990044
601.9865 0.09739512029900435
602.2864999999999 0.10656512029900436
602.5865 0.09656012029900443
602.8855000000001 0.1124001202990044
603.1845000000001 0.10573012029900433
603.4845 0.11406512029900454
603.7835 0.11906012029900451
604.0835 0.10073012029900444
604.3835 0.10989512029900453
604.6825 0.11990012029900446
604.982 0.12740012029900452
605.281 0.1240601202990044
605.581 0.12239512029900448
605.88 0.13573012029900425
606.179 0.12489512029900432
606.479 0.14323012029900453
606.779 0.13906512029900456
607.078 0.13990012029900448
607.3779999999999 0.1523951202990044
607.6765 0.16156512029900452
607.976 0.1707301202990044
608.275 0.1707301202990044
608.5740000000001 0.16823012029900444
608.874 0.17323012029900456
609.173 0.18323012029900457
609.4715 0.1915651202990043
609.7725 0.19323012029900433
610.071 0.1882301202990042
610.37 0.18156512029900454
610.6695 0.19406512029900447
610.9685 0.1840651202990045
611.267 0.20239512029900442
611.567 0.19323012029900433
611.8655 0.19573012029900427
612.1645 0.19489512029900435
612.4645 0.20989512029900426
612.7625 0.18656512029900443
613.0615 0.20989512029900448
613.3615 0.21823012029900446
613.6595 0.19323012029900455
613.9585 0.17323012029900456
614.2595 0.1882301202990042
614.5575 0.17323012029900434
614.8565000000001 0.15906012029900454
615.1565 0.15823012029900443
615.4545 0.16323012029900433
615.7535 0.15489512029900457
616.053 0.14739512029900428
616.3515 0.1507301202990046
616.6500000000001 0.1423951202990044
616.7985000000001 0.14573012029900448
617.097 0.13990012029900448
617.3965000000001 0.1515651202990045
617.6955 0.13323012029900452
617.9935 0.14489512029900456
618.2935 0.13239512029900438
618.5915 0.1224001202990044
618.8905 0.11489512029900453
619.1885 0.1182301202990044
619.4884999999999 0.10406512029900442
619.7864999999999 0.10656512029900447
620.085 0.1082301202990045
620.3835 0.11990012029900446
620.683 0.11489512029900442
620.9815 0.10239512029900447
621.28 0.0940651202990044
621.5785 0.10240012029900439
621.8775 0.08323012029900437
622.1759999999999 0.10906512029900453
622.4745 0.10739512029900447
622.773 0.09323012029900449
623.072 0.09823012029900449
623.3695 0.10073012029900444
623.668 0.09823012029900438
623.966 0.11156512029900448
624.2655 0.09906512029900441
624.564 0.09823012029900438
624.8620000000001 0.09573012029900443
625.16 0.10073012029900444
625.46 0.08656512029900446
625.758 0.08073012029900442
626.056 0.10239512029900447
626.355 0.1040601202990045
626.653 0.0948951202990044
626.952 0.08740012029900437
627.25 0.09073012029900443
627.5485 0.08739512029900445
627.846 0.09240012029900449
628.144 0.10073012029900444
628.443 0.09823012029900438
628.741 0.0940651202990044
629.0395 0.08239512029900445
629.3375000000001 0.0890651202990044
629.636 0.0974001202990045
629.935 0.07823012029900447
630.233 0.08739512029900445
630.531 0.08989512029900451
630.828 0.08406012029900448
631.1265000000001 0.0848951202990044
631.4245 0.08823012029900437
631.7235000000001 0.0690651202990045
632.0215000000001 0.08989512029900451
632.3195000000001 0.09323012029900449
632.6175000000001 0.07656512029900445
632.9155000000001 0.0898951202990044
633.2125 0.08490012029900443
633.5115000000001 0.0790651202990044
633.8095 0.08073012029900442
634.1075000000001 0.0940651202990044
634.4055000000001 0.09490012029900444
634.7035000000001 0.0798951202990045
635.0015000000001 0.08156512029900445
635.2985 0.08906512029900451
635.5975 0.07073012029900441
635.8955000000001 0.08239512029900445
636.0435 0.08239512029900445
636.3415 0.08573012029900443
636.6395 0.08323012029900448
636.9365 0.08906012029900448
637.2345 0.09323012029900449
637.532 0.07406512029900439
637.8299999999999 0.0848951202990044
638.1275 0.0790651202990044
638.4265 0.0840651202990044
638.7235000000001 0.0890651202990044
639.0215000000001 0.09156012029900443
639.319 0.0948951202990044
639.617 0.09823012029900438
639.915 0.07739512029900444
640.2115 0.08239512029900434
640.5095 0.08823012029900448
640.807 0.09656512029900435
641.105 0.09906512029900441
641.404 0.09323012029900449
641.7004999999999 0.09573012029900443
641.998 0.09239512029900446
642.296 0.08573012029900443
642.594 0.10406512029900453
642.89 0.0948951202990044
643.188 0.10656512029900436
643.4860000000001 0.10656512029900447
643.7835 0.11489512029900442
644.0799999999999 0.11906512029900443
644.378 0.10323012029900439
644.675 0.10073012029900444
644.973 0.1132301202990045
645.27 0.11906512029900443
645.567 0.11240012029900451
645.866 0.11406512029900431
646.164 0.11489512029900442
646.46 0.10906512029900453
646.758 0.11739512029900448
647.0550000000001 0.12573012029900435
647.3530000000001 0.13156512029900427
647.6495 0.1340601202990044
647.947 0.13323012029900452
648.2445 0.1365651202990046
648.5419999999999 0.13906012029900452
648.8385000000001 0.14489512029900434
648.864 0.13479024059800865
649.163 0.16313024059800868
649.463 0.15479024059800867
649.762 0.1647902405980089
650.062 0.16646024059800874
650.361 0.1781302405980088
650.661 0.16813024059800857
650.96 0.1647902405980089
651.26 0.16813024059800857
651.559 0.20146024059800888
651.858 0.20979024059800883
652.158 0.23146024059800868
652.457 0.19313024059800893
652.757 0.24313024059800875
653.056 0.23979024059800863
653.355 0.2647902405980085
653.655 0.25646024059800854
653.954 0.2814602405980089
654.253 0.24813024059800864
654.553 0.2731302405980085
654.852 0.2881302405980086
655.151 0.2731302405980085
655.451 0.3297902405980089
655.75 0.31313024059800854
656.049 0.32813024059800866
656.349 0.3264602405980088
656.646 0.3364602405980086
656.945 0.35313024059800857
657.244 0.3364602405980086
657.544 0.34479024059800856
657.843 0.32313024059800877
658.142 0.3164602405980086
658.441 0.31313024059800854
658.741 0.3364602405980086
659.04 0.32813024059800866
659.339 0.29479024059800873
659.638 0.31479024059800875
659.937 0.32813024059800866
660.236 0.2931302405980085
660.536 0.32479024059800854
660.835 0.28313024059800873
661.132 0.30979024059800886
661.431 0.29979024059800863
661.73 0.3114602405980087
662.029 0.2681302405980086
662.328 0.2414602405980089
662.627 0.24479024059800897
662.926 0.2531302405980085
663.225 0.24313024059800875
663.524 0.22479024059800895
663.823 0.23813024059800886
664.12 0.21813024059800884
664.419 0.22479024059800895
664.719 0.19646024059800854
665.018 0.19313024059800893
665.316 0.20146024059800888
665.615 0.12979024059800875
665.914 0.18479024059800891
666.213 0.1831302405980087
666.512 0.15646024059800895
666.809 0.17146024059800863
667.108 0.16313024059800868
667.407 0.16813024059800857
667.706 0.1647902405980089
668.005 0.16146024059800884
668.304 0.14979024059800877
668.603 0.16146024059800884
668.9 0.12479024059800885
669.198 0.13479024059800865
669.497 0.14646024059800872
669.796 0.13813024059800877
670.095 0.13646024059800893
670.394 0.11813024059800874
670.691 0.13813024059800877
670.989 0.1264602405980087
671.288 0.11813024059800874
671.587 0.10979024059800872
671.886 0.12479024059800885
672.184 0.11146024059800878
672.481 0.12146024059800879
672.78 0.11479024059800884
673.079 0.10479024059800883
673.377 0.10979024059800872
673.676 0.11146024059800878
673.973 0.10146024059800877
674.271 0.10479024059800883
674.57 0.10813024059800873
674.869 0.09313024059800883
675.167 0.09479024059800882
675.464 0.09813024059800872
675.763 0.0897902405980087
676.061 0.0897902405980087
676.36 0.08479024059800881
676.659 0.0897902405980087
676.955 0.08479024059800881
677.254 0.09646024059800866
677.552 0.08313024059800882
677.851 0.09146024059800877
678.148 0.08646024059800865
678.446 0.0781302405980087
678.745 0.10646024059800867
679.043 0.08813024059800871
679.34 0.08479024059800881
679.638 0.0781302405980087
679.937 0.0797902405980087
680.235 0.0797902405980087
680.532 0.09979024059800871
680.83 0.06979024059800869
681.129 0.07646024059800864
681.427 0.0897902405980087
681.723 0.054790240598008785
682.022 0.07146024059800875
682.32 0.06979024059800869
682.619 0.0797902405980087
682.915 0.09146024059800877
683.214 0.08813024059800871
683.512 0.07313024059800881
683.808 0.0797902405980087
684.107 0.08146024059800876
684.405 0.08646024059800865
684.703 0.0647902405980088
685.0 0.08479024059800881
685.298 0.07313024059800881
685.596 0.05313024059800879
685.893 0.0747902405980088
686.191 0.054790240598008785
686.489 0.06979024059800869
686.788 0.0797902405980087
687.084 0.0631302405980088
687.382 0.058130240598008684
687.68 0.056460240598008846
687.977 0.058130240598008684
688.275 0.07146024059800875
688.573 0.0647902405980088
688.869 0.056460240598008846
689.167 0.0747902405980088
689.466 0.07313024059800881
689.762 0.0631302405980088
690.06 0.05979024059800868
690.358 0.05146024059800873
690.654 0.07646024059800864
690.952 0.06813024059800869
691.25 0.05979024059800868
691.547 0.06146024059800874
691.845 0.06813024059800869
692.143 0.05146024059800873
692.439 0.048130240598008675
692.737 0.05979024059800868
693.033 0.04979024059800867
693.331 0.06813024059800869
693.629 0.05313024059800879
693.925 0.05313024059800879
694.223 0.06646024059800863
694.521 0.05313024059800879
694.817 0.048130240598008675
695.115 0.054790240598008785
695.413 0.03979024059800866
695.709 0.05979024059800868
696.007 0.054790240598008785
696.303 0.04313024059800878
696.601 0.05313024059800879
696.899 0.0631302405980088
697.195 0.0631302405980088
697.493 0.048130240598008675
697.789 0.05146024059800873
698.087 0.06146024059800874
698.385 0.05313024059800879
698.681 0.058130240598008684
698.978 0.04979024059800867
699.274 0.03646024059800883
699.572 0.05146024059800873
699.868 0.056460240598008846
700.166 0.048130240598008675
700.464 0.07146024059800875
700.759 0.054790240598008785
701.057 0.04979024059800867
701.353 0.054790240598008785
701.651 0.06146024059800874
701.947 0.06146024059800874
702.244 0.048130240598008675
702.542 0.044790240598008776
702.838 0.05313024059800879
703.136 0.04646024059800884
703.431 0.0631302405980088
703.729 0.05979024059800868
704.025 0.04979024059800867
704.323 0.05979024059800868
704.618 0.044790240598008776
704.916 0.04979024059800867
705.212 0.03979024059800866
705.509 0.05146024059800873
705.805 0.056460240598008846
706.103 0.054790240598008785
706.4 0.054790240598008785
706.696 0.02479024059800876
706.993 0.04979024059800867
707.289 0.054790240598008785
707.587 0.04979024059800867
707.882 0.04979024059800867
708.18 0.0631302405980088
708.475 0.038130240598008666
708.773 0.05979024059800868
709.068 0.048130240598008675
709.366 0.054790240598008785
709.661 0.056460240598008846
709.959 0.03479024059800877
710.255 0.054790240598008785
710.552 0.058130240598008684
710.847 0.04979024059800867
711.145 0.048130240598008675
711.44 0.044790240598008776
711.736 0.05313024059800879
712.033 0.054790240598008785
712.329 0.05146024059800873
712.626 0.05313024059800879
712.922 0.03646024059800883
713.219 0.04979024059800867
713.514 0.06146024059800874
713.812 0.07313024059800881
714.107 0.06646024059800863
714.405 0.05146024059800873
714.7 0.06979024059800869
714.997 0.054790240598008785
715.293 0.023130240598008764
715.588 0.04646024059800884
715.885 0.06146024059800874
716.181 0.04979024059800867
716.478 0.05313024059800879
716.773 0.056460240598008846
717.07 0.05146024059800873
717.366 0.05979024059800868
717.661 0.058130240598008684
717.958 0.05979024059800868
718.254 0.05146024059800873
718.551 0.05313024059800879
718.846 0.04979024059800867
719.141 0.03979024059800866
719.438 0.04313024059800878
719.734 0.05979024059800868
720.031 0.03646024059800883
720.326 0.03479024059800877
720.621 0.04646024059800884
720.918 0.044790240598008776
721.213 0.044790240598008776
721.511 0.04313024059800878
721.806 0.048130240598008675
722.101 0.056460240598008846
722.398 0.03646024059800883
722.693 0.038130240598008666
722.99 0.038130240598008666
723.285 0.056460240598008846
723.58 0.05313024059800879
723.877 0.048130240598008675
724.172 0.05146024059800873
724.467 0.04979024059800867
724.764 0.05146024059800873
725.06 0.04313024059800878
725.354 0.04646024059800884
725.651 0.04146024059800872
725.946 0.054790240598008785
726.243 0.05146024059800873
726.538 0.04646024059800884
726.833 0.038130240598008666
727.13 0.044790240598008776
727.425 0.029790240598008652
727.72 0.04146024059800872
728.017 0.044790240598008776
728.312 0.058130240598008684
728.607 0.03479024059800877
728.904 0.04313024059800878
729.199 0.03479024059800877
729.494 0.03979024059800866
729.789 0.04146024059800872
730.085 0.03979024059800866
730.38 0.048130240598008675
730.675 0.04979024059800867
730.972 0.04313024059800878
731.267 0.048130240598008675
731.562 0.03313024059800877
731.858 0.03646024059800883
732.153 0.04646024059800884
732.448 0.038130240598008666
732.743 0.03479024059800877
733.039 0.048130240598008675
733.334 0.038130240598008666
733.629 0.04979024059800867
733.926 0.04646024059800884
734.22 0.03479024059800877
734.515 0.04979024059800867
734.81 0.05146024059800873
735.107 0.05313024059800879
735.401 0.04646024059800884
735.696 0.03146024059800871
735.991 0.048130240598008675
736.287 0.03146024059800871
736.582 0.03479024059800877
736.876 0.04646024059800884
737.171 0.038130240598008666
737.468 0.04979024059800867
737.762 0.04146024059800872
738.057 0.044790240598008776
738.352 0.048130240598008675
738.648 0.044790240598008776
738.943 0.05146024059800873
739.237 0.04313024059800878
739.532 0.04646024059800884
739.828 0.03979024059800866
740.123 0.044790240598008776
740.417 0.03146024059800871
740.712 0.04979024059800867
741.006 0.044790240598008776
741.303 0.021460240598008704
741.597 0.04146024059800872
741.892 0.023130240598008764
742.186 0.03313024059800877
742.483 0.0631302405980088
742.777 0.028130240598008657
743.072 0.03646024059800883
743.366 0.028130240598008657
743.66 0.03313024059800877
743.955 0.03313024059800877
744.251 0.044790240598008776
744.546 0.028130240598008657
744.84 0.044790240598008776
745.134 0.044790240598008776
745.429 0.04146024059800872
745.725 0.04646024059800884
746.019 0.03313024059800877
746.314 0.029790240598008652
746.608 0.044790240598008776
746.902 0.03646024059800883
747.197 0.04979024059800867
747.493 0.03979024059800866
747.787 0.038130240598008666
748.082 0.03479024059800877
748.376 0.03646024059800883
748.67 0.02646024059800882
748.964 0.04313024059800878
749.259 0.048130240598008675
749.555 0.03646024059800883
749.849 0.03479024059800877
750.143 0.029790240598008652
750.437 0.038130240598008666
750.732 0.03979024059800866
751.026 0.03646024059800883
751.32 0.04979024059800867
751.614 0.03479024059800877
751.91 0.054790240598008785
752.204 0.03146024059800871
752.498 0.056460240598008846
752.793 0.04646024059800884
753.087 0.048130240598008675
753.381 0.02479024059800876
753.675 0.03146024059800871
753.969 0.02646024059800882
754.263 0.03646024059800883
754.559 0.04979024059800867
754.853 0.038130240598008666
755.147 0.04146024059800872
755.441 0.04979024059800867
755.735 0.048130240598008675
756.029 0.04646024059800884
756.323 0.02646024059800882
756.617 0.044790240598008776
756.911 0.03979024059800866
757.205 0.054790240598008785
757.499 0.028130240598008657
757.793 0.048130240598008675
758.087 0.023130240598008764
758.381 0.05146024059800873
758.677 0.03979024059800866
758.971 0.05313024059800879
759.265 0.05146024059800873
759.559 0.03646024059800883
759.853 0.038130240598008666
760.146 0.03313024059800877
760.44 0.03146024059800871
760.734 0.03646024059800883
761.028 0.021460240598008704
761.322 0.04146024059800872
761.616 0.048130240598008675
761.909 0.056460240598008846
762.203 0.04313024059800878
762.497 0.03313024059800877
762.791 0.04646024059800884
763.085 0.03479024059800877
763.378 0.04646024059800884
763.672 0.044790240598008776
763.966 0.038130240598008666
764.26 0.029790240598008652
764.553 0.04146024059800872
764.847 0.04979024059800867
765.141 0.03479024059800877
765.435 0.048130240598008675
765.728 0.04146024059800872
766.022 0.04313024059800878
766.316 0.04313024059800878
766.609 0.03979024059800866
766.903 0.03646024059800883
767.197 0.04979024059800867
767.49 0.028130240598008657
767.784 0.048130240598008675
768.078 0.048130240598008675
768.371 0.04313024059800878
768.665 0.03146024059800871
768.958 0.04979024059800867
769.252 0.03646024059800883
769.546 0.03479024059800877
769.839 0.044790240598008776
770.133 0.038130240598008666
770.426 0.04646024059800884
770.72 0.04146024059800872
771.013 0.019790240598008643
771.305 0.04979024059800867
771.598 0.05146024059800873
771.892 0.03646024059800883
772.185 0.04646024059800884
772.479 0.03479024059800877
772.772 0.03646024059800883
773.066 0.03646024059800883
773.359 0.03646024059800883
773.653 0.029790240598008652
773.946 0.03646024059800883
774.239 0.03979024059800866
774.533 0.05313024059800879
774.826 0.03479024059800877
775.12 0.03479024059800877
775.411 0.03979024059800866
775.704 0.038130240598008666
775.998 0.03479024059800877
776.291 0.038130240598008666
776.584 0.03313024059800877
776.878 0.02646024059800882
777.171 0.04146024059800872
777.464 0.038130240598008666
777.758 0.03146024059800871
778.049 0.03313024059800877
778.342 0.01479024059800875
778.636 0.05979024059800868
778.929 0.03146024059800871
779.222 0.04313024059800878
779.515 0.048130240598008675
779.809 0.04146024059800872
780.102 0.03979024059800866
780.393 0.029790240598008652
780.686 0.048130240598008675
780.979 0.04313024059800878
781.273 0.04646024059800884
781.566 0.028130240598008657
781.859 0.04313024059800878
782.152 0.04146024059800872
782.443 0.04979024059800867
782.737 0.03313024059800877
783.03 0.04313024059800878
783.323 0.028130240598008657
783.616 0.05313024059800879
783.909 0.04146024059800872
784.2 0.048130240598008675
784.493 0.04146024059800872
784.786 0.03146024059800871
785.079 0.03479024059800877
785.372 0.038130240598008666
785.664 0.03646024059800883
785.957 0.028130240598008657
786.25 0.044790240598008776
786.543 0.048130240598008675
786.836 0.038130240598008666
787.127 0.04313024059800878
787.42 0.044790240598008776
787.713 0.03646024059800883
788.006 0.03979024059800866
788.299 0.04979024059800867
788.59 0.029790240598008652
788.882 0.03146024059800871
789.175 0.03313024059800877
789.468 0.058130240598008684
789.761 0.04646024059800884
790.052 0.04313024059800878
790.345 0.04646024059800884
790.638 0.056460240598008846
790.931 0.054790240598008785
791.222 0.021460240598008704
791.515 0.03479024059800877
791.807 0.044790240598008776
792.1 0.02646024059800882
792.391 0.04146024059800872
792.684 0.04146024059800872
792.977 0.03313024059800877
793.27 0.04646024059800884
793.56 0.048130240598008675
793.853 0.03979024059800866
794.146 0.044790240598008776
794.439 0.054790240598008785
794.729 0.03646024059800883
795.022 0.044790240598008776
795.315 0.04979024059800867
795.606 0.03313024059800877
795.898 0.05146024059800873
796.191 0.03646024059800883
796.484 0.028130240598008657
796.775 0.054790240598008785
797.067 0.04313024059800878
797.36 0.03479024059800877
797.651 0.04979024059800867
797.943 0.05146024059800873
798.236 0.048130240598008675
798.528 0.03313024059800877
798.819 0.038130240598008666
799.112 0.05146024059800873
799.404 0.021460240598008704
799.695 0.04646024059800884
799.987 0.04146024059800872
800.28 0.038130240598008666
800.571 0.044790240598008776
800.863 0.03979024059800866
801.156 0.03646024059800883
801.446 0.04646024059800884
801.739 0.044790240598008776
802.031 0.04646024059800884
802.322 0.044790240598008776
802.614 0.02479024059800876
802.907 0.056460240598008846
803.197 0.048130240598008675
803.49 0.03146024059800871
803.782 0.03313024059800877
804.073 0.038130240598008666
804.365 0.048130240598008675
804.658 0.04146024059800872
804.948 0.044790240598008776
805.241 0.044790240598008776
805.531 0.04646024059800884
805.823 0.044790240598008776
806.116 0.058130240598008684
806.406 0.03146024059800871
806.698 0.044790240598008776
806.991 0.044790240598008776
807.281 0.03646024059800883
807.574 0.048130240598008675
807.864 0.05313024059800879
808.156 0.03313024059800877
808.449 0.038130240598008666
808.739 0.03979024059800866
809.031 0.028130240598008657
809.321 0.05313024059800879
809.614 0.038130240598008666
809.906 0.04646024059800884
810.196 0.044790240598008776
810.489 0.04646024059800884
810.779 0.04979024059800867
811.071 0.044790240598008776
811.363 0.05313024059800879
811.653 0.038130240598008666
811.946 0.03313024059800877
812.236 0.048130240598008675
812.528 0.04313024059800878
812.818 0.04313024059800878
813.11 0.044790240598008776
813.401 0.04979024059800867
813.693 0.03979024059800866
813.985 0.04146024059800872
814.275 0.056460240598008846
814.567 0.05146024059800873
814.857 0.05146024059800873
815.149 0.044790240598008776
815.439 0.04646024059800884
815.731 0.04146024059800872
816.022 0.04313024059800878
816.314 0.048130240598008675
816.604 0.048130240598008675
816.896 0.03979024059800866
817.188 0.058130240598008684
817.478 0.056460240598008846
817.77 0.04979024059800867
818.06 0.03979024059800866
818.352 0.03646024059800883
818.642 0.03646024059800883
818.934 0.04646024059800884
819.224 0.05979024059800868
819.516 0.038130240598008666
819.806 0.03146024059800871
820.098 0.04313024059800878
820.388 0.03979024059800866
820.679 0.04979024059800867
820.969 0.044790240598008776
821.261 0.04313024059800878
821.551 0.04646024059800884
821.843 0.03146024059800871
822.133 0.03313024059800877
822.423 0.05146024059800873
822.715 0.038130240598008666
823.005 0.03646024059800883
823.296 0.048130240598008675
823.586 0.03313024059800877
823.878 0.05313024059800879
824.168 0.05313024059800879
824.46 0.048130240598008675
824.749 0.03479024059800877
825.041 0.048130240598008675
825.331 0.04979024059800867
825.623 0.044790240598008776
825.912 0.04646024059800884
826.202 0.04146024059800872
826.494 0.05313024059800879
826.784 0.03979024059800866
827.075 0.03146024059800871
827.365 0.056460240598008846
827.657 0.05979024059800868
827.947 0.04979024059800867
828.236 0.04313024059800878
828.528 0.03979024059800866
828.818 0.038130240598008666
829.109 0.05146024059800873
829.399 0.05146024059800873
829.69 0.05313024059800879
829.98 0.05146024059800873
830.27 0.04313024059800878
830.561 0.048130240598008675
830.851 0.058130240598008684
831.143 0.054790240598008785
831.432 0.044790240598008776
831.722 0.048130240598008675
832.013 0.04146024059800872
832.303 0.038130240598008666
832.592 0.03646024059800883
832.884 0.04646024059800884
833.173 0.0647902405980088
833.465 0.038130240598008666
833.754 0.05313024059800879
834.044 0.05313024059800879
834.335 0.04979024059800867
834.625 0.06146024059800874
834.914 0.04313024059800878
835.206 0.05146024059800873
835.495 0.048130240598008675
835.785 0.054790240598008785
836.076 0.038130240598008666
836.366 0.03979024059800866
836.657 0.038130240598008666
836.946 0.05146024059800873
837.236 0.048130240598008675
837.527 0.03479024059800877
837.817 0.05146024059800873
838.106 0.05146024059800873
838.397 0.044790240598008776
838.687 0.05979024059800868
838.976 0.05979024059800868
839.265 0.048130240598008675
839.557 0.05313024059800879
839.846 0.044790240598008776
840.135 0.04313024059800878
840.426 0.058130240598008684
840.716 0.05313024059800879
841.005 0.05146024059800873
841.296 0.038130240598008666
841.586 0.04979024059800867
841.875 0.056460240598008846
842.166 0.04146024059800872
842.455 0.044790240598008776
842.744 0.05146024059800873
843.034 0.03646024059800883
843.325 0.06979024059800869
843.614 0.054790240598008785
843.903 0.05979024059800868
844.194 0.048130240598008675
844.484 0.04313024059800878
844.773 0.05979024059800868
845.062 0.048130240598008675
845.353 0.054790240598008785
845.642 0.04979024059800867
845.931 0.05146024059800873
846.22 0.0631302405980088
846.511 0.044790240598008776
846.801 0.04146024059800872
847.09 0.06813024059800869
847.379 0.056460240598008846
847.67 0.058130240598008684
847.959 0.0631302405980088
848.248 0.056460240598008846
848.537 0.03979024059800866
848.828 0.06646024059800863
849.117 0.056460240598008846
849.406 0.04146024059800872
849.695 0.05313024059800879
849.984 0.054790240598008785
850.275 0.04979024059800867
850.564 0.05146024059800873
850.853 0.04146024059800872
851.142 0.058130240598008684
851.431 0.05313024059800879
851.722 0.05979024059800868
852.011 0.0647902405980088
852.299 0.05146024059800873
852.588 0.06979024059800869
852.877 0.044790240598008776
853.168 0.03979024059800866
853.457 0.058130240598008684
853.746 0.05979024059800868
854.035 0.05979024059800868
854.324 0.06146024059800874
854.614 0.05313024059800879
854.903 0.058130240598008684
855.192 0.05313024059800879
855.481 0.06646024059800863
855.77 0.06146024059800874
856.058 0.06146024059800874
856.349 0.058130240598008684
856.638 0.04979024059800867
856.927 0.05313024059800879
857.216 0.058130240598008684
857.504 0.05313024059800879
857.793 0.04646024059800884
858.082 0.0647902405980088
858.372 0.058130240598008684
858.661 0.06979024059800869
858.95 0.058130240598008684
859.239 0.0631302405980088
859.527 0.0781302405980087
859.816 0.05313024059800879
860.105 0.06813024059800869
860.395 0.06146024059800874
860.684 0.05146024059800873
860.973 0.04979024059800867
861.261 0.0631302405980088
861.55 0.056460240598008846
861.838 0.0647902405980088
862.127 0.0797902405980087
862.416 0.04979024059800867
862.704 0.054790240598008785
862.993 0.05146024059800873
863.283 0.054790240598008785
863.572 0.06646024059800863
863.86 0.056460240598008846
864.149 0.0747902405980088
864.437 0.04313024059800878
864.726 0.05979024059800868
865.014 0.06146024059800874
865.303 0.056460240598008846
865.591 0.07146024059800875
865.88 0.06146024059800874
866.168 0.056460240598008846
866.457 0.058130240598008684
866.747 0.0797902405980087
867.036 0.05979024059800868
867.324 0.06646024059800863
867.613 0.06646024059800863
867.901 0.04979024059800867
868.189 0.04979024059800867
868.478 0.056460240598008846
868.766 0.07146024059800875
869.055 0.054790240598008785
869.343 0.0647902405980088
869.631 0.06979024059800869
869.92 0.06146024059800874
870.208 0.0747902405980088
870.496 0.04146024059800872
870.785 0.05979024059800868
871.073 0.05979024059800868
871.361 0.0631302405980088
871.65 0.05979024059800868
871.938 0.06646024059800863
872.226 0.0647902405980088
872.514 0.058130240598008684
872.803 0.0647902405980088
873.091 0.05979024059800868
873.379 0.06146024059800874
873.667 0.07313024059800881
873.956 0.05146024059800873
874.244 0.05979024059800868
874.532 0.048130240598008675
874.82 0.04646024059800884
875.108 0.07646024059800864
875.397 0.06646024059800863
875.685 0.06813024059800869
875.973 0.05313024059800879
876.261 0.058130240598008684
876.549 0.058130240598008684
876.837 0.06813024059800869
877.125 0.07146024059800875
877.414 0.0781302405980087
877.702 0.06813024059800869
877.99 0.0797902405980087
878.278 0.0631302405980088
878.566 0.06146024059800874
878.854 0.04979024059800867
879.142 0.04979024059800867
879.43 0.054790240598008785
879.718 0.06646024059800863
880.004 0.05313024059800879
880.292 0.0631302405980088
880.58 0.06979024059800869
880.868 0.054790240598008785
881.156 0.06979024059800869
881.444 0.07646024059800864
881.732 0.0631302405980088
882.02 0.07646024059800864
882.308 0.0747902405980088
882.596 0.0797902405980087
882.884 0.056460240598008846
883.172 0.0631302405980088
883.458 0.06813024059800869
883.746 0.06813024059800869
884.034 0.07313024059800881
884.322 0.0631302405980088
884.609 0.0747902405980088
884.897 0.056460240598008846
885.185 0.056460240598008846
885.473 0.07313024059800881
885.761 0.08146024059800876
886.049 0.07146024059800875
886.335 0.06979024059800869
886.622 0.056460240598008846
886.91 0.054790240598008785
887.198 0.0747902405980088
887.486 0.07646024059800864
887.774 0.0631302405980088
888.061 0.06146024059800874
888.347 0.06813024059800869
888.635 0.0631302405980088
888.923 0.06979024059800869
889.21 0.07646024059800864
889.498 0.06979024059800869
889.786 0.08146024059800876
890.073 0.08479024059800881
890.359 0.0781302405980087
890.647 0.07146024059800875
890.935 0.08146024059800876
891.222 0.06979024059800869
891.51 0.07146024059800875
891.798 0.0631302405980088
892.083 0.06813024059800869
892.371 0.09146024059800877
892.659 0.0647902405980088
892.946 0.08479024059800881
893.234 0.05979024059800868
893.519 0.0897902405980087
893.807 0.0631302405980088
894.094 0.08146024059800876
894.382 0.06813024059800869
894.67 0.07646024059800864
894.955 0.07646024059800864
895.243 0.0747902405980088
895.53 0.0781302405980087
895.818 0.0747902405980088
896.105 0.0781302405980087
896.391 0.09646024059800866
896.678 0.07646024059800864
896.966 0.0781302405980087
897.253 0.08646024059800865
897.539 0.0797902405980087
897.826 0.06979024059800869
898.114 0.0747902405980088
898.401 0.07146024059800875
898.689 0.06646024059800863
898.974 0.08646024059800865
899.261 0.0781302405980087
899.549 0.07646024059800864
899.836 0.09479024059800882
900.122 0.07646024059800864
900.409 0.09313024059800883
900.696 0.08813024059800871
900.982 0.0647902405980088
901.269 0.0781302405980087
901.556 0.09313024059800883
901.844 0.07313024059800881
902.129 0.07146024059800875
902.417 0.07313024059800881
902.704 0.07646024059800864
902.991 0.07146024059800875
903.276 0.08146024059800876
903.564 0.09146024059800877
903.851 0.06646024059800863
904.136 0.06646024059800863
904.423 0.11313024059800884
904.711 0.09313024059800883
904.998 0.0747902405980088
905.283 0.09146024059800877
905.57 0.0747902405980088
905.858 0.0747902405980088
906.143 0.058130240598008684
906.43 0.09479024059800882
906.717 0.08813024059800871
907.002 0.07646024059800864
907.29 0.0781302405980087
907.577 0.08813024059800871
907.862 0.06979024059800869
908.149 0.0797902405980087
908.436 0.07313024059800881
908.721 0.11479024059800884
909.008 0.07313024059800881
909.295 0.09146024059800877
909.581 0.08813024059800871
909.868 0.0631302405980088
910.155 0.0781302405980087
910.44 0.09479024059800882
910.727 0.08313024059800882
911.014 0.0781302405980087
911.299 0.07146024059800875
911.586 0.09979024059800871
911.871 0.09313024059800883
912.158 0.06646024059800863
912.445 0.0797902405980087
912.73 0.0897902405980087
913.017 0.08313024059800882
913.304 0.0797902405980087
913.589 0.09979024059800871
913.876 0.0897902405980087
914.161 0.06979024059800869
914.448 0.0797902405980087
914.735 0.08646024059800865
915.02 0.08813024059800871
915.307 0.10813024059800873
915.591 0.07646024059800864
915.878 0.09646024059800866
916.165 0.08146024059800876
916.45 0.08813024059800871
916.737 0.08479024059800881
917.022 0.08479024059800881
917.309 0.09813024059800872
917.595 0.10313024059800883
917.88 0.0797902405980087
918.167 0.09313024059800883
918.452 0.08813024059800871
918.739 0.08646024059800865
919.024 0.10146024059800877
919.31 0.09979024059800871
919.597 0.09313024059800883
919.882 0.0797902405980087
920.169 0.0797902405980087
920.453 0.09979024059800871
920.74 0.11146024059800878
921.025 0.08479024059800881
921.312 0.10146024059800877
921.596 0.08146024059800876
921.883 0.08813024059800871
922.168 0.09479024059800882
922.454 0.10479024059800883
922.741 0.09646024059800866
923.026 0.09979024059800871
923.312 0.09479024059800882
923.597 0.11479024059800884
923.884 0.09979024059800871
924.168 0.07646024059800864
924.455 0.08646024059800865
924.74 0.09646024059800866
925.026 0.08646024059800865
925.311 0.08479024059800881
925.597 0.0747902405980088
925.882 0.09646024059800866
926.169 0.10146024059800877
926.453 0.10646024059800867
926.74 0.10313024059800883
927.024 0.09146024059800877
927.311 0.09979024059800871
927.595 0.10979024059800872
927.882 0.11146024059800878
928.166 0.09146024059800877
928.453 0.09979024059800871
928.737 0.09979024059800871
929.022 0.09646024059800866
929.308 0.10479024059800883
929.593 0.09313024059800883
929.879 0.10146024059800877
930.164 0.09813024059800872
930.45 0.09979024059800871
930.734 0.10313024059800883
931.021 0.10146024059800877
931.305 0.11479024059800884
931.592 0.10813024059800873
931.876 0.10813024059800873
932.16 0.09479024059800882
932.447 0.09813024059800872
932.731 0.10146024059800877
933.018 0.11313024059800884
933.302 0.09313024059800883
933.588 0.10813024059800873
933.873 0.10979024059800872
934.157 0.10146024059800877
934.443 0.10979024059800872
934.727 0.11813024059800874
935.014 0.09646024059800866
935.298 0.11813024059800874
935.582 0.10813024059800873
935.869 0.11313024059800884
936.153 0.10813024059800873
936.439 0.12479024059800885
936.723 0.11813024059800874
937.008 0.11979024059800873
937.294 0.09813024059800872
937.578 0.09979024059800871
937.864 0.10313024059800883
938.148 0.09979024059800871
938.433 0.11479024059800884
938.719 0.09313024059800883
939.003 0.10146024059800877
939.287 0.10313024059800883
939.573 0.10479024059800883
939.857 0.11146024059800878
940.143 0.10646024059800867
940.428 0.0797902405980087
940.712 0.10813024059800873
940.998 0.08479024059800881
941.282 0.11813024059800874
941.566 0.09813024059800872
941.852 0.10979024059800872
942.136 0.09813024059800872
942.42 0.09813024059800872
942.706 0.10146024059800877
942.99 0.10979024059800872
943.274 0.10813024059800873
943.56 0.09479024059800882
943.844 0.10479024059800883
944.128 0.11479024059800884
944.414 0.09146024059800877
944.698 0.10479024059800883
944.982 0.10646024059800867
945.268 0.10646024059800867
945.552 0.09313024059800883
945.836 0.10313024059800883
946.12 0.09646024059800866
946.406 0.10813024059800873
946.69 0.0797902405980087
946.974 0.08813024059800871
947.26 0.09813024059800872
947.544 0.09479024059800882
947.828 0.10646024059800867
948.114 0.09813024059800872
948.397 0.10646024059800867
948.681 0.10979024059800872
948.965 0.08646024059800865
949.251 0.11146024059800878
949.535 0.07646024059800864
949.819 0.08313024059800882
950.103 0.09979024059800871
950.388 0.11646024059800868
950.672 0.0897902405980087
950.956 0.12146024059800879
951.24 0.09813024059800872
951.525 0.08646024059800865
951.809 0.09479024059800882
952.093 0.10313024059800883
952.377 0.09646024059800866
952.662 0.10146024059800877
952.946 0.10646024059800867
953.23 0.11813024059800874
953.514 0.11813024059800874
953.799 0.11313024059800884
954.083 0.10313024059800883
954.367 0.10146024059800877
954.65 0.09146024059800877
954.934 0.09979024059800871
955.22 0.09313024059800883
955.503 0.10646024059800867
955.787 0.09146024059800877
956.071 0.09979024059800871
956.356 0.11146024059800878
956.64 0.11479024059800884
956.924 0.09979024059800871
957.207 0.10146024059800877
957.491 0.09979024059800871
957.774 0.11813024059800874
958.06 0.10146024059800877
958.343 0.09813024059800872
958.627 0.11479024059800884
958.911 0.11646024059800868
959.194 0.10813024059800873
959.48 0.12313024059800863
959.763 0.10646024059800867
960.047 0.10313024059800883
960.33 0.10813024059800873
960.614 0.10479024059800883
960.897 0.11479024059800884
961.182 0.11479024059800884
961.466 0.10646024059800867
961.749 0.08479024059800881
962.033 0.10479024059800883
962.316 0.10646024059800867
962.6 0.11146024059800878
962.883 0.10813024059800873
963.169 0.10479024059800883
963.452 0.10979024059800872
963.735 0.09313024059800883
964.019 0.10313024059800883
964.302 0.09979024059800871
964.586 0.09979024059800871
964.869 0.09646024059800866
965.152 0.09479024059800882
965.438 0.09313024059800883
965.721 0.08646024059800865
966.004 0.10646024059800867
966.288 0.09813024059800872
966.571 0.10479024059800883
966.854 0.10479024059800883
967.137 0.08646024059800865
967.421 0.10813024059800873
967.704 0.09313024059800883
967.987 0.0797902405980087
968.272 0.08479024059800881
968.556 0.08646024059800865
968.839 0.10646024059800867
969.122 0.0781302405980087
969.405 0.07313024059800881
969.689 0.07646024059800864
969.972 0.0897902405980087
970.255 0.09479024059800882
970.538 0.0797902405980087
970.821 0.09313024059800883
971.105 0.10813024059800873
971.388 0.08146024059800876
971.671 0.10646024059800867
971.954 0.09646024059800866
972.237 0.10479024059800883
972.52 0.0747902405980088
972.805 0.0897902405980087
973.088 0.09813024059800872
973.371 0.08313024059800882
973.655 0.09146024059800877
973.938 0.10646024059800867
974.221 0.09146024059800877
974.504 0.09979024059800871
974.787 0.0897902405980087
975.07 0.08813024059800871
975.353 0.09479024059800882
975.636 0.08813024059800871
975.919 0.09146024059800877
976.202 0.09813024059800872
976.485 0.08479024059800881
976.768 0.11146024059800878
977.051 0.08813024059800871
977.334 0.08813024059800871
977.617 0.08313024059800882
977.9 0.07313024059800881
978.183 0.09813024059800872
978.466 0.07313024059800881
978.749 0.09813024059800872
979.031 0.10479024059800883
979.314 0.08646024059800865
979.597 0.08813024059800871
979.88 0.09146024059800877
980.163 0.0897902405980087
980.446 0.0897902405980087
980.729 0.10813024059800873
981.01 0.09646024059800866
981.293 0.0747902405980088
981.575 0.09313024059800883
981.858 0.09979024059800871
982.141 0.09146024059800877
982.424 0.09313024059800883
982.707 0.09646024059800866
982.989 0.09979024059800871
983.272 0.08646024059800865
983.555 0.09646024059800866
983.838 0.09979024059800871
984.12 0.10479024059800883
984.403 0.08313024059800882
984.686 0.09146024059800877
984.969 0.09313024059800883
985.251 0.08813024059800871
985.532 0.09646024059800866
985.815 0.08646024059800865
986.098 0.0781302405980087
986.38 0.09813024059800872
986.663 0.09813024059800872
986.946 0.07646024059800864
987.228 0.10146024059800877
987.511 0.09313024059800883
987.794 0.08479024059800881
988.076 0.08813024059800871
988.357 0.09479024059800882
988.639 0.10313024059800883
988.922 0.08313024059800882
989.205 0.11146024059800878
989.487 0.09646024059800866
989.77 0.09146024059800877
990.052 0.11313024059800884
990.335 0.11313024059800884
990.616 0.09813024059800872
990.898 0.10313024059800883
991.181 0.08646024059800865
991.463 0.09979024059800871
991.746 0.08813024059800871
992.028 0.09646024059800866
992.311 0.10479024059800883
992.591 0.0797902405980087
992.874 0.08313024059800882
993.156 0.09479024059800882
993.439 0.10479024059800883
993.721 0.10979024059800872
994.003 0.09813024059800872
994.284 0.09479024059800882
994.566 0.08646024059800865
994.849 0.08813024059800871
995.131 0.10646024059800867
995.414 0.10813024059800873
995.696 0.09979024059800871
995.976 0.09146024059800877
996.259 0.12313024059800863
996.541 0.09979024059800871
996.823 0.08479024059800881
997.106 0.13813024059800877
997.386 0.12813024059800854
997.669 0.09479024059800882
997.951 0.10146024059800877
998.233 0.09813024059800872
998.516 0.09813024059800872
998.796 0.09979024059800871
999.078 0.09479024059800882
999.36 0.10646024059800867
999.643 0.09479024059800882
999.923 0.0897902405980087
1000.21 0.10646024059800867
1000.49 0.09146024059800877
1000.77 0.09813024059800872
1001.05 0.09313024059800883
1001.33 0.09813024059800872
1001.61 0.09813024059800872
1001.9 0.10479024059800883
1002.18 0.10479024059800883
1002.46 0.11479024059800884
1002.74 0.09813024059800872
1003.02 0.10313024059800883
1003.3 0.11313024059800884
1003.59 0.07313024059800881
1003.87 0.11646024059800868
1004.15 0.10979024059800872
1004.43 0.11479024059800884
1004.71 0.10313024059800883
1004.99 0.10979024059800872
1005.28 0.11313024059800884
1005.56 0.09479024059800882
1005.84 0.11479024059800884
1006.12 0.10146024059800877
1006.4 0.10646024059800867
1006.68 0.09646024059800866
1006.96 0.08813024059800871
1007.24 0.10146024059800877
1007.53 0.10479024059800883
1007.81 0.10979024059800872
1008.09 0.11146024059800878
1008.37 0.10313024059800883
1008.65 0.09979024059800871
1008.93 0.10646024059800867
1009.21 0.09979024059800871
1009.5 0.10146024059800877
1009.78 0.09813024059800872
1010.06 0.09979024059800871
1010.34 0.10646024059800867
1010.62 0.06813024059800869
1010.9 0.10146024059800877
1011.18 0.09813024059800872
1011.47 0.10146024059800877
1011.75 0.10313024059800883
1012.03 0.10646024059800867
1012.31 0.10479024059800883
1012.59 0.09646024059800866
1012.87 0.10146024059800877
1013.15 0.12313024059800863
1013.43 0.11479024059800884
1013.72 0.10979024059800872
1014.0 0.09313024059800883
1014.28 0.10313024059800883
1014.56 0.11646024059800868
1014.84 0.09313024059800883
1015.12 0.1264602405980087
1015.4 0.09813024059800872
1015.68 0.11479024059800884
1015.96 0.09979024059800871
1016.24 0.09979024059800871
1016.53 0.08146024059800876
1016.81 0.12146024059800879
1017.09 0.06979024059800869
1017.37 0.10979024059800872
1017.65 0.09646024059800866
1017.93 0.10313024059800883
1018.21 0.11479024059800884
1018.49 0.09479024059800882
1018.77 0.09646024059800866
1019.05 0.11313024059800884
1019.33 0.0897902405980087
1019.61 0.10979024059800872
1019.9 0.09979024059800871
1020.18 0.10479024059800883
1020.46 0.10646024059800867
1020.74 0.11146024059800878
1021.02 0.11479024059800884
1021.3 0.10813024059800873
1021.58 0.11646024059800868
1021.86 0.09479024059800882
1022.14 0.11646024059800868
1022.42 0.11479024059800884
1022.7 0.12313024059800863
1022.98 0.12813024059800854
1023.26 0.10646024059800867
1023.54 0.10646024059800867
1023.83 0.10146024059800877
1024.11 0.10646024059800867
1024.39 0.11313024059800884
1024.67 0.11313024059800884
1024.95 0.10313024059800883
1025.23 0.10813024059800873
1025.51 0.10646024059800867
1025.79 0.11479024059800884
1026.07 0.10979024059800872
1026.35 0.10479024059800883
1026.63 0.13313024059800888
1026.91 0.0897902405980087
1027.19 0.11313024059800884
1027.47 0.11313024059800884
1027.75 0.09813024059800872
1028.03 0.11313024059800884
1028.31 0.10313024059800883
1028.59 0.09646024059800866
1028.87 0.10479024059800883
1029.15 0.11146024059800878
1029.43 0.09479024059800882
1029.71 0.09813024059800872
1030.0 0.09979024059800871
1030.27 0.10479024059800883
1030.56 0.12479024059800885
1030.84 0.10646024059800867
1031.12 0.09979024059800871
1031.4 0.0897902405980087
1031.68 0.11979024059800873
1031.96 0.10646024059800867
1032.24 0.11813024059800874
1032.52 0.09313024059800883
1032.8 0.10479024059800883
1033.08 0.11146024059800878
1033.36 0.12313024059800863
1033.64 0.12479024059800885
1033.92 0.1264602405980087
1034.2 0.10479024059800883
1034.48 0.10146024059800877
1034.76 0.11646024059800868
1035.04 0.10479024059800883
1035.32 0.11146024059800878
1035.6 0.09479024059800882
1035.88 0.09313024059800883
1036.16 0.10479024059800883
1036.44 0.10646024059800867
1036.72 0.10979024059800872
1037.0 0.11479024059800884
1037.28 0.11313024059800884
1037.56 0.10646024059800867
1037.84 0.11646024059800868
1038.12 0.11313024059800884
1038.4 0.11813024059800874
1038.68 0.12979024059800875
1038.96 0.1264602405980087
1039.24 0.11146024059800878
1039.52 0.09979024059800871
1039.79 0.11146024059800878
1040.08 0.11479024059800884
1040.35 0.09313024059800883
1040.64 0.11979024059800873
1040.91 0.1314602405980086
1041.19 0.1264602405980087
1041.47 0.11979024059800873
1041.75 0.12813024059800854
1042.03 0.13979024059800854
1042.31 0.12813024059800854
1042.59 0.1302006613598728
1042.87 0.13021496419635242
1043.15 0.13018934790728692
1043.43 0.13020097674749415
1043.71 0.13020850653159438
1043.99 0.12813024059800854
1044.27 0.12479024059800885
1044.55 0.11313024059800884
1044.83 0.11979024059800873
1045.11 0.11479024059800884
1045.39 0.12146024059800879
1045.67 0.11979024059800873
1045.95 0.11146024059800878
1046.23 0.13313024059800888
1046.51 0.11646024059800868
1046.79 0.13313024059800888
1047.06 0.1264602405980087
1047.34 0.12813024059800854
1047.62 0.13313024059800888
1047.9 0.11979024059800873
1048.18 0.11479024059800884
1048.46 0.11979024059800873
1048.74 0.12313024059800863
1049.02 0.11646024059800868
1049.3 0.13646024059800893
1049.58 0.13646024059800893
1049.86 0.14146024059800882
1050.14 0.12313024059800863
1050.42 0.11813024059800874
1050.7 0.13313024059800888
1050.97 0.12813024059800854
1051.25 0.13979024059800854
1051.53 0.1314602405980086
1051.81 0.12979024059800875
1052.09 0.14146024059800882
1052.37 0.13646024059800893
1052.65 0.13646024059800893
1052.93 0.14146024059800882
1053.21 0.1314602405980086
1053.49 0.14313024059800866
1053.77 0.11979024059800873
1054.05 0.12813024059800854
1054.32 0.13479024059800865
1054.6 0.11313024059800884
1054.88 0.14146024059800882
1055.16 0.12479024059800885
1055.44 0.13313024059800888
1055.72 0.14646024059800872
1056.0 0.14313024059800866
1056.28 0.13646024059800893
1056.56 0.15479024059800867
1056.84 0.13813024059800877
1057.11 0.14146024059800882
1057.39 0.15479024059800867
1057.67 0.1264602405980087
1057.95 0.11146024059800878
1058.23 0.16146024059800884
1058.51 0.12313024059800863
1058.79 0.12979024059800875
1059.07 0.13979024059800854
1059.34 0.1514602405980086
1059.62 0.16646024059800874
1059.9 0.16146024059800884
1060.18 0.1781302405980088
1060.46 0.16813024059800857
1060.74 0.14146024059800882
1061.02 0.15646024059800895
1061.3 0.1647902405980089
1061.57 0.16146024059800884
1061.85 0.1514602405980086
1062.13 0.14646024059800872
1062.41 0.1314602405980086
1062.69 0.14479024059800888
1062.97 0.15479024059800867
1063.25 0.1531302405980089
1063.53 0.1531302405980089
1063.8 0.14979024059800877
1064.08 0.14146024059800882
1064.36 0.13979024059800854
1064.64 0.1647902405980089
1064.92 0.14479024059800888
1065.2 0.15979024059800856
1065.47 0.15646024059800895
1065.75 0.1314602405980086
1066.03 0.16646024059800874
1066.31 0.16646024059800874
1066.59 0.1647902405980089
1066.87 0.16146024059800884
1067.14 0.16313024059800868
1067.42 0.16313024059800868
1067.7 0.14646024059800872
1067.98 0.16646024059800874
1068.26 0.15646024059800895
1068.54 0.15646024059800895
1068.82 0.16646024059800874
1069.09 0.15979024059800856
1069.37 0.1781302405980088
1069.65 0.14813024059800856
1069.93 0.1697902405980088
1070.21 0.14646024059800872
1070.48 0.16646024059800874
1070.76 0.1531302405980089
1071.04 0.1731302405980089
1071.32 0.16146024059800884
1071.6 0.16146024059800884
1071.87 0.14979024059800877
1072.15 0.1731302405980089
1072.43 0.1514602405980086
1072.71 0.15646024059800895
1072.99 0.1581302405980088
1073.26 0.15979024059800856
1073.54 0.16813024059800857
1073.82 0.1647902405980089
1074.1 0.14646024059800872
1074.38 0.1514602405980086
1074.65 0.16313024059800868
1074.93 0.17646024059800897
1075.21 0.15479024059800867
1075.49 0.17479024059800868
1075.77 0.15979024059800856
1076.05 0.14979024059800877
1076.32 0.1647902405980089
1076.6 0.18646024059800875
1076.88 0.17479024059800868
1077.16 0.15479024059800867
1077.43 0.17146024059800863
1077.71 0.14146024059800882
1077.99 0.17646024059800897
1078.27 0.1781302405980088
1078.55 0.1531302405980089
1078.82 0.1697902405980088
1079.1 0.1781302405980088
1079.38 0.17979024059800858
1079.66 0.17479024059800868
1079.93 0.15979024059800856
1080.21 0.15979024059800856
1080.49 0.1647902405980089
1080.77 0.1831302405980087
1081.05 0.1581302405980088
1081.32 0.16813024059800857
1081.6 0.18479024059800891
1081.88 0.16813024059800857
1082.16 0.14979024059800877
1082.43 0.1781302405980088
1082.71 0.18646024059800875
1082.99 0.16646024059800874
1083.27 0.17646024059800897
1083.54 0.16646024059800874
1083.82 0.1697902405980088
1084.1 0.17479024059800868
1084.38 0.16313024059800868
1084.65 0.15646024059800895
1084.93 0.1781302405980088
1085.21 0.1781302405980088
1085.49 0.17646024059800897
1085.76 0.1781302405980088
1086.04 0.16813024059800857
1086.32 0.16146024059800884
1086.6 0.1881302405980086
1086.87 0.1731302405980089
1087.15 0.18646024059800875
1087.43 0.17479024059800868
1087.71 0.1697902405980088
1087.98 0.18646024059800875
1088.26 0.15979024059800856
1088.54 0.17979024059800858
1088.81 0.17146024059800863
1089.09 0.17146024059800863
1089.37 0.18146024059800886
1089.65 0.1897902405980088
1089.92 0.17646024059800897
1090.2 0.17479024059800868
1090.48 0.17646024059800897
1090.75 0.14813024059800856
1091.03 0.15979024059800856
