# Created: 2019-11-28 14:56:45.000890
# rshift intensity
55.3072 0.033330000000000304
55.6331 0.040000000000000036
55.9568 0.04333000000000009
56.2826 0.040000000000000036
56.6085 0.04333000000000009
56.9343 0.033330000000000304
57.2601 0.04333000000000009
57.5859 0.050000000000000266
57.9117 0.05333000000000032
58.2374 0.05667
58.5632 0.016669999999999963
58.8889 0.050000000000000266
59.2147 0.07667000000000002
59.5382 0.03000000000000025
59.864 0.05667
60.1897 0.07667000000000002
60.5154 0.04333000000000009
60.841 0.07667000000000002
61.1667 0.06000000000000005
61.4924 0.04333000000000009
61.818 0.08000000000000007
62.1437 0.06000000000000005
62.4671 0.07667000000000002
62.7927 0.07000000000000028
63.1183 0.050000000000000266
63.4439 0.0900000000000003
63.7695 0.07667000000000002
64.0951 0.08667000000000025
64.4206 0.09667000000000003
64.744 0.07000000000000028
65.0696 0.09667000000000003
65.3951 0.13332999999999995
65.7206 0.11332999999999993
66.0461 0.15332999999999997
66.3716 0.13000000000000034
66.6971 0.20333000000000023
67.0204 0.22666999999999993
67.3459 0.20000000000000018
67.6713 0.22999999999999998
67.9967 0.2400000000000002
68.3222 0.25
68.6476 0.2766700000000002
68.9708 0.26000000000000023
69.2962 0.22666999999999993
69.6216 0.24666999999999994
69.9469 0.2633300000000003
70.2723 0.23667000000000016
70.5976 0.2566700000000002
70.9208 0.20999999999999996
71.2461 0.20333000000000023
71.5715 0.20667000000000035
71.8968 0.18333000000000022
72.222 0.13667000000000007
72.5452 0.13667000000000007
72.8704 0.14000000000000012
73.1957 0.09667000000000003
73.5209 0.12667000000000028
73.8462 0.07333000000000034
74.1692 0.08000000000000007
74.4944 0.05667
74.8196 0.05667
75.1448 0.07000000000000028
75.4678 0.05667
75.793 0.05333000000000032
76.1182 0.023330000000000073
76.4433 0.05333000000000032
76.7684 0.05667
77.0914 0.013330000000000286
77.4165 0.016669999999999963
77.7416 0.033330000000000304
78.0667 0.04667000000000021
78.3896 0.033330000000000304
78.7147 0.04333000000000009
79.0397 0.04333000000000009
79.3648 0.033330000000000304
79.6876 0.04667000000000021
80.0127 0.05333000000000032
80.3377 0.040000000000000036
80.6627 0.03666999999999998
80.9855 0.05667
81.3105 0.03000000000000025
81.6354 0.04667000000000021
81.9604 0.040000000000000036
82.2832 0.013330000000000286
82.6081 0.03000000000000025
82.933 0.040000000000000036
83.2558 0.0
83.5807 0.03000000000000025
83.9055 0.020000000000000018
84.2304 0.04667000000000021
84.5531 0.026670000000000194
84.878 0.020000000000000018
85.2028 0.04333000000000009
85.5255 0.03000000000000025
85.8503 0.05667
86.1751 0.03666999999999998
86.4978 0.04333000000000009
86.8225 0.040000000000000036
87.1473 0.020000000000000018
87.4721 0.026670000000000194
87.7947 0.026670000000000194
88.1194 0.023330000000000073
88.4441 0.04333000000000009
88.7667 0.03000000000000025
89.0914 0.03000000000000025
89.4161 0.026670000000000194
89.7386 0.033330000000000304
90.0633 0.040000000000000036
90.3879 0.026670000000000194
90.7104 0.05667
91.0351 0.04667000000000021
91.3597 0.016669999999999963
91.6822 0.033330000000000304
92.0068 0.026670000000000194
92.3314 0.016669999999999963
92.6538 0.04333000000000009
92.9784 0.016669999999999963
93.3029 0.03666999999999998
93.6253 0.020000000000000018
93.9499 0.05333000000000032
94.2722 0.023330000000000073
94.5967 0.016669999999999963
94.9212 0.05667
95.2436 0.04333000000000009
95.5681 0.050000000000000266
95.8925 0.04667000000000021
96.2149 0.06667000000000023
96.5393 0.03666999999999998
96.8616 0.03000000000000025
97.186 0.04667000000000021
97.5104 0.04667000000000021
97.8327 0.06000000000000005
98.1571 0.05667
98.4814 0.04333000000000009
98.8037 0.04333000000000009
99.128 0.07667000000000002
99.4502 0.040000000000000036
99.7746 0.08000000000000007
100.099 0.04667000000000021
100.421 0.050000000000000266
100.745 0.050000000000000266
101.067 0.04333000000000009
101.392 0.040000000000000036
101.714 0.04333000000000009
102.038 0.023330000000000073
102.362 0.06000000000000005
102.684 0.03666999999999998
103.009 0.003330000000000055
103.331 0.03666999999999998
103.655 0.04667000000000021
103.977 0.040000000000000036
104.301 0.04333000000000009
104.625 0.03000000000000025
104.947 0.03000000000000025
105.271 0.03000000000000025
105.593 0.026670000000000194
105.918 0.050000000000000266
106.24 0.04667000000000021
106.564 0.040000000000000036
106.886 0.03000000000000025
107.21 0.040000000000000036
107.534 0.033330000000000304
107.856 0.033330000000000304
108.18 0.040000000000000036
108.502 0.026670000000000194
108.826 0.023330000000000073
109.147 0.003330000000000055
109.471 0.040000000000000036
109.793 0.026670000000000194
110.117 0.03666999999999998
110.439 0.03000000000000025
110.763 0.04333000000000009
111.085 0.04333000000000009
111.409 0.040000000000000036
111.731 0.026670000000000194
112.054 0.013330000000000286
112.376 0.04333000000000009
112.7 0.04667000000000021
113.022 0.006670000000000176
113.346 0.040000000000000036
113.667 0.040000000000000036
113.991 0.05333000000000032
114.313 0.033330000000000304
114.637 0.04333000000000009
114.958 0.03000000000000025
115.282 0.03666999999999998
115.604 0.05667
115.928 0.026670000000000194
116.249 0.023330000000000073
116.573 0.040000000000000036
116.895 0.05333000000000032
117.216 0.040000000000000036
117.54 0.07333000000000034
117.862 0.06000000000000005
118.185 0.05333000000000032
118.507 0.07333000000000034
118.83 0.020000000000000018
119.152 0.06000000000000005
119.476 0.07000000000000028
119.797 0.08000000000000007
120.121 0.07333000000000034
120.442 0.033330000000000304
120.764 0.03666999999999998
121.087 0.06667000000000023
121.409 0.050000000000000266
121.732 0.050000000000000266
122.054 0.06000000000000005
122.377 0.040000000000000036
122.699 0.06000000000000005
123.02 0.026670000000000194
123.344 0.05333000000000032
123.665 0.020000000000000018
123.988 0.03666999999999998
124.31 0.03666999999999998
124.631 0.03666999999999998
124.955 0.05333000000000032
125.276 0.03000000000000025
125.599 0.040000000000000036
125.921 0.020000000000000018
126.242 0.026670000000000194
126.565 0.040000000000000036
126.887 0.020000000000000018
127.21 0.033330000000000304
127.531 0.020000000000000018
127.852 0.040000000000000036
128.176 0.06000000000000005
128.497 0.033330000000000304
128.82 0.03000000000000025
129.141 0.050000000000000266
129.463 0.03000000000000025
129.786 0.06333000000000011
130.107 0.04333000000000009
130.428 0.05333000000000032
130.751 0.03666999999999998
131.073 0.03666999999999998
131.394 0.023330000000000073
131.717 0.03000000000000025
132.038 0.0
132.361 0.05667
132.682 0.050000000000000266
133.003 0.020000000000000018
133.326 0.04667000000000021
133.647 0.040000000000000036
133.969 0.016669999999999963
134.292 0.050000000000000266
134.613 0.05667
134.934 0.040000000000000036
135.257 0.03666999999999998
135.578 0.05333000000000032
135.899 0.033330000000000304
136.22 0.03666999999999998
136.543 0.040000000000000036
136.864 0.020000000000000018
137.184 0.040000000000000036
137.507 0.03666999999999998
137.828 0.023330000000000073
138.149 0.026670000000000194
138.472 0.03666999999999998
138.793 0.03666999999999998
139.114 0.013330000000000286
139.437 0.013330000000000286
139.758 0.033330000000000304
140.078 0.040000000000000036
140.399 0.010000000000000231
140.722 0.03666999999999998
141.043 0.06000000000000005
141.364 0.033330000000000304
141.687 0.03666999999999998
142.007 0.03666999999999998
142.328 0.03666999999999998
142.649 0.03666999999999998
142.972 0.03666999999999998
143.292 0.03000000000000025
143.613 0.06333000000000011
143.934 0.026670000000000194
144.256 0.07333000000000034
144.577 0.03666999999999998
144.898 0.040000000000000036
145.218 0.026670000000000194
145.541 0.033330000000000304
145.862 0.03000000000000025
146.182 0.033330000000000304
146.503 0.04667000000000021
146.826 0.026670000000000194
147.146 0.023330000000000073
147.467 0.04333000000000009
147.787 0.026670000000000194
148.11 0.033330000000000304
148.43 0.023330000000000073
148.751 0.03666999999999998
149.071 0.03666999999999998
149.392 0.05333000000000032
149.715 0.023330000000000073
150.035 0.040000000000000036
150.355 0.04667000000000021
150.676 0.026670000000000194
150.996 0.03000000000000025
151.319 0.023330000000000073
151.639 0.04333000000000009
151.96 0.050000000000000266
152.28 0.04333000000000009
152.6 0.026670000000000194
152.923 0.020000000000000018
153.243 0.06667000000000023
153.564 0.050000000000000266
153.884 0.05667
154.204 0.03000000000000025
154.527 0.05667
154.847 0.03666999999999998
155.167 0.05333000000000032
155.488 0.03666999999999998
155.808 0.04667000000000021
156.128 0.050000000000000266
156.45 0.06000000000000005
156.771 0.04667000000000021
157.091 0.06667000000000023
157.411 0.04333000000000009
157.731 0.033330000000000304
158.052 0.050000000000000266
158.372 0.050000000000000266
158.694 0.05667
159.014 0.06000000000000005
159.334 0.04667000000000021
159.654 0.040000000000000036
159.975 0.020000000000000018
160.295 0.05333000000000032
160.615 0.03666999999999998
160.937 0.06000000000000005
161.257 0.040000000000000036
161.577 0.016669999999999963
161.897 0.040000000000000036
162.217 0.04333000000000009
162.537 0.050000000000000266
162.857 0.04333000000000009
163.177 0.026670000000000194
163.499 0.06667000000000023
163.819 0.026670000000000194
164.139 0.026670000000000194
164.459 0.016669999999999963
164.779 0.04333000000000009
165.099 0.033330000000000304
165.419 0.05667
165.739 0.04333000000000009
166.059 0.05667
166.379 0.033330000000000304
166.699 0.023330000000000073
167.021 0.05333000000000032
167.341 0.040000000000000036
167.661 0.033330000000000304
167.98 0.03666999999999998
168.3 0.033330000000000304
168.62 0.05333000000000032
168.94 0.05667
169.26 0.040000000000000036
169.58 0.026670000000000194
169.899 0.04333000000000009
170.219 0.023330000000000073
170.539 0.010000000000000231
170.859 0.040000000000000036
171.178 0.033330000000000304
171.498 0.05333000000000032
171.818 0.05667
172.137 0.033330000000000304
172.459 0.03666999999999998
172.779 0.03000000000000025
173.099 0.020000000000000018
173.418 0.03000000000000025
173.738 0.04667000000000021
174.058 0.013330000000000286
174.377 0.023330000000000073
174.697 0.03666999999999998
175.016 0.040000000000000036
175.336 0.033330000000000304
175.656 0.033330000000000304
175.975 0.03666999999999998
176.295 0.040000000000000036
176.614 0.026670000000000194
176.934 0.050000000000000266
177.253 0.020000000000000018
177.573 0.033330000000000304
177.892 0.026670000000000194
178.212 0.040000000000000036
178.531 0.06667000000000023
178.851 0.023330000000000073
179.17 0.026670000000000194
179.49 0.013330000000000286
179.809 0.026670000000000194
180.129 0.050000000000000266
180.448 0.04667000000000021
180.767 0.06333000000000011
181.087 0.03666999999999998
181.406 0.023330000000000073
181.726 0.020000000000000018
182.045 0.013330000000000286
182.362 0.013330000000000286
182.682 0.04333000000000009
183.001 0.040000000000000036
183.32 0.04667000000000021
183.64 0.03000000000000025
183.959 0.006670000000000176
184.278 0.040000000000000036
184.597 0.04333000000000009
184.917 0.03000000000000025
185.236 0.040000000000000036
185.555 0.03666999999999998
185.874 0.03666999999999998
186.194 0.04667000000000021
186.513 0.010000000000000231
186.832 0.026670000000000194
187.151 0.05333000000000032
187.47 0.016669999999999963
187.787 0.033330000000000304
188.107 0.05667
188.426 0.013330000000000286
188.745 0.026670000000000194
189.064 0.03666999999999998
189.383 0.03666999999999998
189.702 0.06667000000000023
190.021 0.026670000000000194
190.34 0.020000000000000018
190.66 0.03666999999999998
190.976 0.016669999999999963
191.296 0.033330000000000304
191.615 0.040000000000000036
191.934 0.033330000000000304
192.253 0.016669999999999963
192.572 0.016669999999999963
192.891 0.020000000000000018
193.21 0.026670000000000194
193.529 0.04333000000000009
193.845 0.026670000000000194
194.164 0.040000000000000036
194.483 0.03666999999999998
194.802 0.010000000000000231
195.121 0.04333000000000009
195.44 0.05667
195.759 0.026670000000000194
196.076 0.03666999999999998
196.395 0.03666999999999998
196.713 0.03666999999999998
197.032 0.026670000000000194
197.351 0.040000000000000036
197.67 0.026670000000000194
197.987 0.03000000000000025
198.305 0.010000000000000231
198.624 0.04333000000000009
198.943 0.050000000000000266
199.262 0.050000000000000266
199.581 0.06000000000000005
199.897 0.04667000000000021
200.216 0.04667000000000021
200.535 0.03000000000000025
200.853 0.03000000000000025
201.172 0.050000000000000266
201.491 0.04667000000000021
201.807 0.040000000000000036
202.126 0.05667
202.445 0.023330000000000073
202.763 0.04333000000000009
203.082 0.03000000000000025
203.399 0.04667000000000021
203.717 0.04333000000000009
204.036 0.04333000000000009
204.354 0.040000000000000036
204.673 0.040000000000000036
204.989 0.03000000000000025
205.308 0.023330000000000073
205.627 0.06333000000000011
205.945 0.03666999999999998
206.262 0.020000000000000018
206.58 0.04333000000000009
206.899 0.04667000000000021
207.217 0.04333000000000009
207.533 0.050000000000000266
207.852 0.03000000000000025
208.17 0.04667000000000021
208.489 0.040000000000000036
208.805 0.050000000000000266
209.124 0.06333000000000011
209.442 0.026670000000000194
209.761 0.050000000000000266
210.077 0.040000000000000036
210.395 0.040000000000000036
210.714 0.03666999999999998
211.032 0.06667000000000023
211.348 0.04667000000000021
211.667 0.05333000000000032
211.985 0.03666999999999998
212.303 0.03666999999999998
212.619 0.03666999999999998
212.938 0.03666999999999998
213.256 0.013330000000000286
213.572 0.05333000000000032
213.89 0.06000000000000005
214.209 0.04667000000000021
214.527 0.03666999999999998
214.843 0.033330000000000304
215.161 0.03000000000000025
215.48 0.05333000000000032
215.796 0.040000000000000036
216.114 0.08000000000000007
216.432 0.033330000000000304
216.748 0.05333000000000032
217.066 0.07667000000000002
217.384 0.05333000000000032
217.703 0.040000000000000036
218.019 0.04333000000000009
218.337 0.06333000000000011
218.655 0.07667000000000002
218.971 0.05667
219.289 0.06333000000000011
219.607 0.05333000000000032
219.923 0.06333000000000011
220.241 0.03666999999999998
220.559 0.05667
220.875 0.04333000000000009
221.193 0.07667000000000002
221.511 0.04667000000000021
221.827 0.050000000000000266
222.145 0.07000000000000028
222.461 0.05667
222.779 0.0900000000000003
223.097 0.07667000000000002
223.413 0.06667000000000023
223.731 0.04667000000000021
224.048 0.06333000000000011
224.364 0.06333000000000011
224.682 0.08000000000000007
225.0 0.050000000000000266
225.316 0.07000000000000028
225.634 0.05667
225.949 0.06000000000000005
226.267 0.08000000000000007
226.585 0.04333000000000009
226.901 0.03000000000000025
227.219 0.06333000000000011
227.534 0.050000000000000266
227.852 0.09667000000000003
228.17 0.023330000000000073
228.486 0.07000000000000028
228.803 0.06333000000000011
229.119 0.07333000000000034
229.437 0.07333000000000034
229.755 0.050000000000000266
230.07 0.05333000000000032
230.388 0.06333000000000011
230.703 0.06000000000000005
231.021 0.07667000000000002
231.337 0.06333000000000011
231.654 0.05667
231.972 0.07333000000000034
232.288 0.07000000000000028
232.605 0.05333000000000032
232.921 0.07000000000000028
233.238 0.040000000000000036
233.554 0.04667000000000021
233.871 0.05333000000000032
234.189 0.050000000000000266
234.504 0.05333000000000032
234.822 0.033330000000000304
235.137 0.06000000000000005
235.455 0.04667000000000021
235.77 0.04667000000000021
236.088 0.04667000000000021
236.403 0.05667
236.721 0.08000000000000007
237.036 0.050000000000000266
237.354 0.050000000000000266
237.669 0.026670000000000194
237.986 0.050000000000000266
238.302 0.06333000000000011
238.619 0.05667
238.935 0.06000000000000005
239.252 0.050000000000000266
239.567 0.06333000000000011
239.885 0.040000000000000036
240.202 0.06667000000000023
240.517 0.06000000000000005
240.833 0.04333000000000009
241.15 0.023330000000000073
241.465 0.06333000000000011
241.782 0.050000000000000266
242.098 0.023330000000000073
242.415 0.04333000000000009
242.73 0.04667000000000021
243.047 0.07333000000000034
243.363 0.07000000000000028
243.68 0.050000000000000266
243.995 0.05667
244.312 0.04333000000000009
244.627 0.03666999999999998
244.945 0.04333000000000009
245.26 0.040000000000000036
245.577 0.03000000000000025
245.892 0.05667
246.209 0.023330000000000073
246.524 0.05667
246.839 0.050000000000000266
247.156 0.040000000000000036
247.471 0.050000000000000266
247.788 0.04333000000000009
248.103 0.03666999999999998
248.421 0.010000000000000231
248.735 0.06667000000000023
249.053 0.050000000000000266
249.368 0.06667000000000023
249.682 0.040000000000000036
249.999 0.033330000000000304
250.314 0.023330000000000073
250.631 0.026670000000000194
250.946 0.06667000000000023
251.261 0.04333000000000009
251.578 0.040000000000000036
251.893 0.03000000000000025
252.21 0.03666999999999998
252.525 0.040000000000000036
252.842 0.026670000000000194
253.157 0.07333000000000034
253.472 0.06667000000000023
253.788 0.026670000000000194
254.103 0.05667
254.418 0.04333000000000009
254.735 0.013330000000000286
255.05 0.03666999999999998
255.367 0.050000000000000266
255.681 0.07000000000000028
255.996 0.026670000000000194
256.313 0.040000000000000036
256.628 0.06667000000000023
256.942 0.033330000000000304
257.259 0.05333000000000032
257.574 0.013330000000000286
257.89 0.05667
258.205 0.05333000000000032
258.52 0.023330000000000073
258.837 0.04333000000000009
259.151 0.050000000000000266
259.466 0.026670000000000194
259.782 0.06333000000000011
260.097 0.013330000000000286
260.412 0.06333000000000011
260.728 0.040000000000000036
261.043 0.016669999999999963
261.357 0.08000000000000007
261.674 0.040000000000000036
261.989 0.03000000000000025
262.303 0.04333000000000009
262.62 0.06000000000000005
262.934 0.040000000000000036
263.249 0.050000000000000266
263.565 0.05333000000000032
263.88 0.06333000000000011
264.194 0.05667
264.511 0.04667000000000021
264.825 0.03666999999999998
265.14 0.03666999999999998
265.454 0.07000000000000028
265.771 0.050000000000000266
266.085 0.04333000000000009
266.399 0.03666999999999998
266.716 0.05667
267.03 0.05667
267.344 0.05333000000000032
267.659 0.033330000000000304
267.975 0.050000000000000266
268.29 0.04333000000000009
268.604 0.06667000000000023
268.92 0.06333000000000011
269.235 0.023330000000000073
269.549 0.05667
269.863 0.06667000000000023
270.179 0.04333000000000009
270.494 0.06333000000000011
270.808 0.04333000000000009
271.122 0.05333000000000032
271.438 0.05333000000000032
271.753 0.04667000000000021
272.067 0.04333000000000009
272.381 0.05333000000000032
272.697 0.03000000000000025
273.011 0.04667000000000021
273.326 0.05667
273.64 0.03666999999999998
273.956 0.03666999999999998
274.27 0.050000000000000266
274.584 0.04333000000000009
274.898 0.05667
275.212 0.03000000000000025
275.528 0.050000000000000266
275.843 0.026670000000000194
276.157 0.06333000000000011
276.471 0.040000000000000036
276.787 0.023330000000000073
277.101 0.03000000000000025
277.415 0.040000000000000036
277.729 0.06333000000000011
278.043 0.033330000000000304
278.359 0.06000000000000005
278.673 0.04667000000000021
278.987 0.06667000000000023
279.301 0.05667
279.615 0.040000000000000036
279.929 0.020000000000000018
280.245 0.04667000000000021
280.558 0.06000000000000005
280.872 0.050000000000000266
281.186 0.050000000000000266
281.5 0.050000000000000266
281.814 0.03666999999999998
282.13 0.04667000000000021
282.444 0.05333000000000032
282.758 0.06333000000000011
283.071 0.040000000000000036
283.385 0.050000000000000266
283.699 0.040000000000000036
284.015 0.05667
284.329 0.023330000000000073
284.642 0.04667000000000021
284.956 0.06000000000000005
285.27 0.06000000000000005
285.584 0.03000000000000025
285.897 0.05667
286.213 0.04667000000000021
286.527 0.03666999999999998
286.841 0.04333000000000009
287.154 0.06333000000000011
287.468 0.07000000000000028
287.782 0.050000000000000266
288.095 0.050000000000000266
288.409 0.08667000000000025
288.722 0.050000000000000266
289.038 0.04333000000000009
289.352 0.04333000000000009
289.665 0.06667000000000023
289.979 0.04333000000000009
290.293 0.026670000000000194
290.606 0.05333000000000032
290.92 0.06333000000000011
291.233 0.040000000000000036
291.547 0.05667
291.86 0.06667000000000023
292.176 0.04667000000000021
292.489 0.050000000000000266
292.803 0.05667
293.116 0.05333000000000032
293.43 0.04667000000000021
293.743 0.06667000000000023
294.057 0.05333000000000032
294.37 0.07000000000000028
294.683 0.050000000000000266
294.997 0.033330000000000304
295.31 0.04667000000000021
295.624 0.03666999999999998
295.937 0.03666999999999998
296.25 0.040000000000000036
296.564 0.04667000000000021
296.877 0.050000000000000266
297.19 0.0900000000000003
297.504 0.03666999999999998
297.819 0.04333000000000009
298.133 0.06333000000000011
298.446 0.050000000000000266
298.759 0.050000000000000266
299.072 0.07667000000000002
299.386 0.04333000000000009
299.699 0.06333000000000011
300.012 0.06667000000000023
300.325 0.07667000000000002
300.639 0.08333000000000013
300.952 0.04667000000000021
301.265 0.07000000000000028
301.578 0.040000000000000036
301.891 0.04667000000000021
302.205 0.06000000000000005
302.518 0.06667000000000023
302.831 0.07333000000000034
303.144 0.05333000000000032
303.457 0.06000000000000005
303.77 0.06333000000000011
304.083 0.07000000000000028
304.396 0.08667000000000025
304.709 0.06667000000000023
305.023 0.08333000000000013
305.336 0.07333000000000034
305.649 0.07333000000000034
305.962 0.07667000000000002
306.273 0.08667000000000025
306.586 0.07333000000000034
306.899 0.08667000000000025
307.212 0.050000000000000266
307.525 0.05667
307.838 0.08000000000000007
308.151 0.06000000000000005
308.464 0.09667000000000003
308.777 0.10333000000000014
309.089 0.08667000000000025
309.402 0.10667000000000026
309.715 0.08333000000000013
310.028 0.06667000000000023
310.341 0.10000000000000009
310.654 0.10333000000000014
310.967 0.06333000000000011
311.28 0.08000000000000007
311.593 0.08333000000000013
311.903 0.05333000000000032
312.216 0.11332999999999993
312.529 0.07667000000000002
312.842 0.0900000000000003
313.155 0.10000000000000009
313.467 0.06000000000000005
313.78 0.10667000000000026
314.093 0.09333000000000036
314.406 0.08000000000000007
314.718 0.09667000000000003
315.029 0.10000000000000009
315.342 0.07333000000000034
315.654 0.05667
315.967 0.07667000000000002
316.28 0.08333000000000013
316.593 0.10667000000000026
316.905 0.09667000000000003
317.218 0.08000000000000007
317.531 0.10333000000000014
317.841 0.10000000000000009
318.154 0.11667000000000005
318.466 0.11000000000000032
318.779 0.10000000000000009
319.092 0.10333000000000014
319.404 0.08667000000000025
319.717 0.10667000000000026
320.027 0.09667000000000003
320.34 0.07333000000000034
320.652 0.11667000000000005
320.965 0.12667000000000028
321.277 0.09333000000000036
321.59 0.0900000000000003
321.9 0.09333000000000036
322.213 0.07333000000000034
322.525 0.08000000000000007
322.838 0.08000000000000007
323.15 0.07333000000000034
323.463 0.08667000000000025
323.773 0.10333000000000014
324.085 0.1200000000000001
324.398 0.10333000000000014
324.71 0.08333000000000013
325.023 0.10667000000000026
325.333 0.07333000000000034
325.645 0.07333000000000034
325.958 0.07333000000000034
326.27 0.08000000000000007
326.582 0.10000000000000009
326.893 0.09333000000000036
327.205 0.08000000000000007
327.517 0.06333000000000011
327.83 0.08667000000000025
328.142 0.09333000000000036
328.452 0.11000000000000032
328.764 0.08667000000000025
329.077 0.11332999999999993
329.389 0.0900000000000003
329.701 0.11667000000000005
330.011 0.11667000000000005
330.323 0.08667000000000025
330.636 0.08000000000000007
330.948 0.10000000000000009
331.258 0.07000000000000028
331.57 0.08333000000000013
331.882 0.08667000000000025
332.194 0.08667000000000025
332.504 0.09667000000000003
332.817 0.08000000000000007
333.129 0.11000000000000032
333.441 0.1200000000000001
333.751 0.0900000000000003
334.063 0.0900000000000003
334.375 0.09333000000000036
334.685 0.08000000000000007
334.997 0.09667000000000003
335.309 0.09667000000000003
335.621 0.0900000000000003
335.931 0.08667000000000025
336.243 0.09667000000000003
336.555 0.10667000000000026
336.867 0.10333000000000014
337.177 0.1200000000000001
337.489 0.11000000000000032
337.801 0.07667000000000002
338.111 0.09333000000000036
338.423 0.08333000000000013
338.735 0.09333000000000036
339.045 0.10667000000000026
339.356 0.1200000000000001
339.668 0.11000000000000032
339.978 0.10333000000000014
340.29 0.08000000000000007
340.602 0.08667000000000025
340.914 0.12667000000000028
341.224 0.10333000000000014
341.535 0.11667000000000005
341.847 0.11000000000000032
342.157 0.0900000000000003
342.469 0.09667000000000003
342.781 0.0900000000000003
343.09 0.12667000000000028
343.402 0.06667000000000023
343.714 0.0900000000000003
344.023 0.10000000000000009
344.335 0.10667000000000026
344.645 0.10667000000000026
344.957 0.10333000000000014
345.268 0.09667000000000003
345.578 0.10333000000000014
345.89 0.12667000000000028
346.201 0.10667000000000026
346.511 0.10333000000000014
346.823 0.11332999999999993
347.134 0.10333000000000014
347.444 0.08333000000000013
347.755 0.09667000000000003
348.065 0.13332999999999995
348.376 0.11667000000000005
348.688 0.11000000000000032
348.998 0.10333000000000014
349.309 0.08333000000000013
349.619 0.1200000000000001
349.93 0.0900000000000003
350.242 0.11000000000000032
350.551 0.10000000000000009
350.863 0.09667000000000003
351.172 0.1200000000000001
351.484 0.1200000000000001
351.795 0.0900000000000003
352.105 0.08667000000000025
352.416 0.07000000000000028
352.725 0.06667000000000023
353.037 0.11332999999999993
353.346 0.09667000000000003
353.658 0.11332999999999993
353.969 0.1200000000000001
354.278 0.12333000000000016
354.59 0.13667000000000007
354.899 0.08667000000000025
355.211 0.11667000000000005
355.52 0.08000000000000007
355.831 0.09667000000000003
356.142 0.11667000000000005
356.452 0.10333000000000014
356.763 0.10333000000000014
357.072 0.12667000000000028
357.384 0.11332999999999993
357.693 0.12333000000000016
358.004 0.10333000000000014
358.313 0.11667000000000005
358.625 0.08667000000000025
358.934 0.11000000000000032
359.245 0.12333000000000016
359.554 0.13332999999999995
359.865 0.18667000000000034
360.174 0.15332999999999997
360.486 0.12333000000000016
360.795 0.11332999999999993
361.106 0.09667000000000003
361.415 0.10000000000000009
361.726 0.13332999999999995
362.035 0.11000000000000032
362.346 0.11332999999999993
362.655 0.1200000000000001
362.967 0.13667000000000007
363.276 0.10333000000000014
363.587 0.0900000000000003
363.896 0.11332999999999993
364.207 0.11332999999999993
364.516 0.14000000000000012
364.827 0.12667000000000028
365.136 0.08333000000000013
365.447 0.10000000000000009
365.756 0.13332999999999995
366.067 0.09333000000000036
366.376 0.16667000000000032
366.687 0.1200000000000001
366.996 0.11332999999999993
367.307 0.10667000000000026
367.615 0.1200000000000001
367.924 0.13667000000000007
368.235 0.12667000000000028
368.544 0.11000000000000032
368.855 0.14333000000000018
369.164 0.11667000000000005
369.475 0.10333000000000014
369.784 0.10333000000000014
370.094 0.13000000000000034
370.403 0.11332999999999993
370.712 0.11667000000000005
371.023 0.10667000000000026
371.332 0.12667000000000028
371.642 0.1466700000000003
371.951 0.09667000000000003
372.262 0.1200000000000001
372.571 0.10333000000000014
372.879 0.10000000000000009
373.19 0.14333000000000018
373.499 0.09667000000000003
373.81 0.14333000000000018
374.118 0.12333000000000016
374.427 0.12667000000000028
374.738 0.13667000000000007
375.046 0.11332999999999993
375.357 0.13332999999999995
375.666 0.12333000000000016
375.974 0.10667000000000026
376.285 0.1200000000000001
376.593 0.15332999999999997
376.902 0.13667000000000007
377.213 0.14000000000000012
377.521 0.10667000000000026
377.832 0.12333000000000016
378.14 0.14000000000000012
378.449 0.15332999999999997
378.759 0.13667000000000007
379.068 0.15000000000000036
379.376 0.10667000000000026
379.687 0.11000000000000032
379.995 0.13332999999999995
380.304 0.1566700000000001
380.614 0.1200000000000001
380.923 0.12667000000000028
381.231 0.15000000000000036
381.542 0.1200000000000001
381.85 0.15332999999999997
382.159 0.11667000000000005
382.469 0.14000000000000012
382.777 0.11000000000000032
383.086 0.13332999999999995
383.396 0.13667000000000007
383.705 0.15000000000000036
384.013 0.1633300000000002
384.323 0.09667000000000003
384.632 0.16667000000000032
384.94 0.16999999999999993
385.25 0.1466700000000003
385.559 0.13667000000000007
385.867 0.1566700000000001
386.175 0.16667000000000032
386.485 0.14000000000000012
386.794 0.1466700000000003
387.102 0.18667000000000034
387.412 0.1466700000000003
387.72 0.16000000000000014
388.029 0.18333000000000022
388.337 0.16999999999999993
388.647 0.18999999999999995
388.955 0.15332999999999997
389.263 0.13667000000000007
389.571 0.18667000000000034
389.882 0.15332999999999997
390.19 0.20333000000000023
390.498 0.1633300000000002
390.808 0.19333
391.116 0.15000000000000036
391.424 0.18667000000000034
391.732 0.19667000000000012
392.042 0.21667000000000014
392.351 0.1766700000000001
392.659 0.12333000000000016
392.967 0.18667000000000034
393.275 0.21333000000000002
393.585 0.19333
393.893 0.19667000000000012
394.201 0.18667000000000034
394.509 0.19333
394.819 0.21333000000000002
395.127 0.1766700000000001
395.435 0.20000000000000018
395.743 0.18000000000000016
396.051 0.18333000000000022
396.361 0.23333000000000004
396.668 0.21333000000000002
396.976 0.19667000000000012
397.284 0.21667000000000014
397.592 0.20667000000000035
397.902 0.25
398.21 0.20999999999999996
398.518 0.25
398.826 0.2200000000000002
399.133 0.22333000000000025
399.443 0.20667000000000035
399.751 0.21333000000000002
400.059 0.2566700000000002
400.367 0.23333000000000004
400.674 0.26000000000000023
400.982 0.29000000000000004
401.292 0.25333000000000006
401.6 0.22999999999999998
401.908 0.26000000000000023
402.215 0.29000000000000004
402.523 0.2566700000000002
402.831 0.31667000000000023
403.14 0.2733300000000001
403.448 0.2933300000000001
403.756 0.28667
404.063 0.31667000000000023
404.371 0.29666999999999977
404.679 0.30667000000000044
404.986 0.33000000000000007
405.296 0.3033299999999999
405.604 0.3333300000000001
405.911 0.29000000000000004
406.219 0.33999999999999986
406.526 0.35000000000000053
406.834 0.3366699999999998
407.142 0.3633300000000004
407.449 0.3700000000000001
407.759 0.3866700000000005
408.066 0.3333300000000001
408.374 0.3466700000000005
408.681 0.33000000000000007
408.989 0.3433299999999999
409.296 0.41999999999999993
409.604 0.36667000000000005
409.911 0.38332999999999995
410.219 0.3600000000000003
410.526 0.35667000000000026
410.834 0.41000000000000014
411.143 0.41999999999999993
411.45 0.44333000000000045
411.758 0.4133300000000002
412.065 0.4566699999999999
412.373 0.4066700000000001
412.68 0.3799999999999999
412.987 0.4299999999999997
413.295 0.43332999999999977
413.602 0.4666700000000006
413.909 0.39332999999999974
414.217 0.4466700000000001
414.524 0.4133300000000002
414.831 0.4566699999999999
415.139 0.4066700000000001
415.446 0.4133300000000002
415.753 0.45333000000000023
416.06 0.4466700000000001
416.37 0.4400000000000004
416.677 0.42667000000000055
416.984 0.42667000000000055
417.291 0.46999999999999975
417.599 0.4566699999999999
417.906 0.4033300000000004
418.213 0.44333000000000045
418.52 0.45999999999999996
418.827 0.46333
419.135 0.42333
419.442 0.44333000000000045
419.749 0.4166699999999999
420.056 0.42667000000000055
420.363 0.4500000000000002
420.67 0.4666700000000006
420.977 0.41000000000000014
421.284 0.43667000000000034
421.591 0.42667000000000055
421.899 0.39000000000000057
422.206 0.43332999999999977
422.513 0.4033300000000004
422.82 0.4033300000000004
423.127 0.40000000000000036
423.434 0.35000000000000053
423.741 0.3366699999999998
424.048 0.41000000000000014
424.355 0.3866700000000005
424.662 0.35667000000000026
424.967 0.3799999999999999
425.274 0.35667000000000026
425.58 0.33999999999999986
425.887 0.37333000000000016
426.194 0.37666999999999984
426.501 0.3600000000000003
426.808 0.33000000000000007
427.115 0.3200000000000003
427.422 0.3433299999999999
427.729 0.3333300000000001
428.036 0.33999999999999986
428.342 0.3033299999999999
428.649 0.3333300000000001
428.956 0.3200000000000003
429.263 0.3033299999999999
429.57 0.32333000000000034
429.875 0.3100000000000005
430.181 0.32333000000000034
430.488 0.26000000000000023
430.795 0.29666999999999977
431.102 0.3200000000000003
431.408 0.2633300000000003
431.715 0.3200000000000003
432.022 0.2566700000000002
432.329 0.27
432.635 0.29000000000000004
432.942 0.2566700000000002
433.247 0.28000000000000025
433.553 0.2633300000000003
433.86 0.2633300000000003
434.167 0.2933300000000001
434.473 0.22999999999999998
434.78 0.2633300000000003
435.087 0.24333000000000027
435.393 0.25
435.698 0.2566700000000002
436.004 0.26666999999999996
436.311 0.25
436.617 0.26666999999999996
436.924 0.23667000000000016
437.231 0.2400000000000002
437.537 0.23667000000000016
437.842 0.25333000000000006
438.148 0.2733300000000001
438.455 0.28667
438.761 0.2633300000000003
439.068 0.23667000000000016
439.374 0.25333000000000006
439.681 0.22999999999999998
439.985 0.22999999999999998
440.291 0.22333000000000025
440.598 0.22999999999999998
440.904 0.20000000000000018
441.211 0.18999999999999995
441.515 0.21333000000000002
441.822 0.2400000000000002
442.128 0.2200000000000002
442.434 0.21333000000000002
442.741 0.19333
443.047 0.22666999999999993
443.351 0.21333000000000002
443.658 0.18667000000000034
443.964 0.20667000000000035
444.27 0.20000000000000018
444.575 0.18000000000000016
444.881 0.19667000000000012
445.187 0.18333000000000022
445.493 0.20333000000000023
445.8 0.23333000000000004
446.104 0.18000000000000016
446.41 0.2200000000000002
446.716 0.19667000000000012
447.023 0.1766700000000001
447.327 0.18000000000000016
447.633 0.1633300000000002
447.939 0.16000000000000014
448.245 0.18999999999999995
448.552 0.13332999999999995
448.856 0.16999999999999993
449.162 0.18000000000000016
449.468 0.16999999999999993
449.774 0.15000000000000036
450.078 0.15000000000000036
450.384 0.1566700000000001
450.69 0.16667000000000032
450.994 0.18333000000000022
451.3 0.17332999999999998
451.607 0.18667000000000034
451.913 0.1566700000000001
452.217 0.18000000000000016
452.523 0.18999999999999995
452.829 0.16667000000000032
453.135 0.18333000000000022
453.439 0.1566700000000001
453.745 0.16999999999999993
454.051 0.15332999999999997
454.355 0.1566700000000001
454.661 0.18000000000000016
454.967 0.20667000000000035
455.27 0.1766700000000001
455.576 0.13000000000000034
455.882 0.14333000000000018
456.188 0.17332999999999998
456.492 0.17332999999999998
456.798 0.14000000000000012
457.104 0.18667000000000034
457.408 0.16000000000000014
457.714 0.17332999999999998
458.019 0.1566700000000001
458.323 0.18000000000000016
458.629 0.14333000000000018
458.935 0.16667000000000032
459.239 0.16999999999999993
459.544 0.16999999999999993
459.85 0.1633300000000002
460.154 0.19667000000000012
460.46 0.19333
460.766 0.1633300000000002
461.069 0.1633300000000002
461.375 0.18667000000000034
461.681 0.16999999999999993
461.984 0.18000000000000016
462.29 0.1566700000000001
462.594 0.15332999999999997
462.9 0.1633300000000002
463.205 0.1633300000000002
463.509 0.1566700000000001
463.814 0.20999999999999996
464.12 0.14333000000000018
464.424 0.14333000000000018
464.729 0.18333000000000022
465.033 0.17332999999999998
465.339 0.18667000000000034
465.644 0.18333000000000022
465.948 0.18667000000000034
466.253 0.2200000000000002
466.557 0.18000000000000016
466.862 0.21333000000000002
467.168 0.16667000000000032
467.471 0.21667000000000014
467.777 0.16667000000000032
468.08 0.20000000000000018
468.386 0.20667000000000035
468.691 0.1766700000000001
468.995 0.16000000000000014
469.3 0.20667000000000035
469.604 0.18333000000000022
469.909 0.20999999999999996
470.213 0.23667000000000016
470.518 0.2633300000000003
470.824 0.32333000000000034
471.127 0.3533299999999997
471.432 0.41999999999999993
471.736 0.3799999999999999
472.041 0.43667000000000034
472.344 0.38332999999999995
472.65 0.4466700000000001
472.953 0.43332999999999977
473.258 0.4466700000000001
473.562 0.4133300000000002
473.867 0.33999999999999986
474.172 0.4400000000000004
474.476 0.43332999999999977
474.781 0.41999999999999993
475.084 0.43667000000000034
475.39 0.39332999999999974
475.693 0.4033300000000004
475.998 0.4033300000000004
476.301 0.40000000000000036
476.606 0.3033299999999999
476.91 0.23667000000000016
477.215 0.20333000000000023
477.518 0.1766700000000001
477.823 0.16667000000000032
478.126 0.1766700000000001
478.432 0.16667000000000032
478.735 0.20999999999999996
479.04 0.18667000000000034
479.343 0.19667000000000012
479.648 0.20333000000000023
479.951 0.16999999999999993
480.256 0.18000000000000016
480.559 0.18667000000000034
480.864 0.16999999999999993
481.167 0.16667000000000032
481.47 0.1566700000000001
481.776 0.18667000000000034
482.079 0.15000000000000036
482.384 0.16667000000000032
482.687 0.1633300000000002
482.992 0.13332999999999995
483.295 0.17332999999999998
483.6 0.16999999999999993
483.903 0.1466700000000003
484.208 0.17332999999999998
484.51 0.16000000000000014
484.813 0.13667000000000007
485.118 0.15332999999999997
485.421 0.14000000000000012
485.726 0.13000000000000034
486.029 0.18333000000000022
486.334 0.1466700000000003
486.637 0.1466700000000003
486.94 0.1633300000000002
487.245 0.08667000000000025
487.547 0.09667000000000003
487.852 0.13332999999999995
488.155 0.14333000000000018
488.458 0.12333000000000016
488.763 0.14333000000000018
489.066 0.10333000000000014
489.37 0.10333000000000014
489.673 0.13332999999999995
489.976 0.13332999999999995
490.281 0.13000000000000034
490.583 0.13332999999999995
490.888 0.12667000000000028
491.191 0.1566700000000001
491.494 0.14333000000000018
491.798 0.13000000000000034
492.101 0.10000000000000009
492.404 0.11000000000000032
492.708 0.11667000000000005
493.011 0.10667000000000026
493.316 0.11000000000000032
493.618 0.11667000000000005
493.921 0.1200000000000001
494.226 0.10333000000000014
494.528 0.10000000000000009
494.831 0.12333000000000016
495.135 0.10667000000000026
495.438 0.1200000000000001
495.741 0.10667000000000026
496.045 0.10333000000000014
496.348 0.11000000000000032
496.65 0.07667000000000002
496.955 0.12667000000000028
497.257 0.11000000000000032
497.56 0.13332999999999995
497.864 0.1466700000000003
498.167 0.0900000000000003
498.469 0.12333000000000016
498.774 0.10333000000000014
499.076 0.08333000000000013
499.379 0.11332999999999993
499.683 0.14000000000000012
499.986 0.11000000000000032
500.288 0.09667000000000003
500.59 0.11000000000000032
500.895 0.09667000000000003
501.197 0.14000000000000012
501.5 0.11332999999999993
501.804 0.11000000000000032
502.106 0.13000000000000034
502.409 0.11667000000000005
502.711 0.09667000000000003
503.015 0.1200000000000001
503.318 0.1200000000000001
503.62 0.08000000000000007
503.922 0.11332999999999993
504.227 0.08667000000000025
504.529 0.13000000000000034
504.831 0.11332999999999993
505.135 0.1200000000000001
505.438 0.11000000000000032
505.74 0.11332999999999993
506.042 0.11332999999999993
506.346 0.09333000000000036
506.648 0.10667000000000026
506.951 0.13000000000000034
507.253 0.0900000000000003
507.555 0.11000000000000032
507.859 0.11667000000000005
508.161 0.10667000000000026
508.463 0.1466700000000003
508.766 0.09333000000000036
509.07 0.14333000000000018
509.372 0.13000000000000034
509.674 0.14000000000000012
509.976 0.14333000000000018
510.278 0.10333000000000014
510.582 0.13332999999999995
510.884 0.08667000000000025
511.186 0.12333000000000016
511.488 0.10333000000000014
511.79 0.14000000000000012
512.094 0.13332999999999995
512.396 0.11000000000000032
512.698 0.13667000000000007
513.0 0.16000000000000014
513.302 0.11667000000000005
513.606 0.11332999999999993
513.908 0.16000000000000014
514.21 0.11667000000000005
514.512 0.14000000000000012
514.814 0.10000000000000009
515.116 0.1466700000000003
515.42 0.13667000000000007
515.722 0.12667000000000028
516.024 0.15000000000000036
516.326 0.17332999999999998
516.628 0.16667000000000032
516.93 0.11667000000000005
517.233 0.15332999999999997
517.535 0.13332999999999995
517.837 0.12333000000000016
518.139 0.1566700000000001
518.441 0.11667000000000005
518.742 0.1466700000000003
519.044 0.14000000000000012
519.346 0.15332999999999997
519.65 0.15332999999999997
519.952 0.12333000000000016
520.253 0.16000000000000014
520.555 0.16000000000000014
520.857 0.13667000000000007
521.159 0.1633300000000002
521.46 0.13667000000000007
521.762 0.15332999999999997
522.066 0.15332999999999997
522.367 0.1200000000000001
522.669 0.13000000000000034
522.971 0.15332999999999997
523.272 0.10667000000000026
523.574 0.18000000000000016
523.876 0.14333000000000018
524.177 0.1766700000000001
524.479 0.12333000000000016
524.78 0.1633300000000002
525.082 0.14333000000000018
525.384 0.11332999999999993
525.687 0.14000000000000012
525.989 0.12333000000000016
526.29 0.12667000000000028
526.592 0.1633300000000002
526.893 0.13332999999999995
527.195 0.16667000000000032
527.496 0.14000000000000012
527.798 0.1633300000000002
528.099 0.15000000000000036
528.401 0.16999999999999993
528.702 0.1466700000000003
529.004 0.1633300000000002
529.305 0.1633300000000002
529.607 0.15332999999999997
529.908 0.14333000000000018
530.21 0.16999999999999993
530.511 0.20000000000000018
530.812 0.20667000000000035
531.114 0.16000000000000014
531.415 0.1633300000000002
531.717 0.1766700000000001
532.018 0.19333
532.319 0.20333000000000023
532.621 0.18667000000000034
532.922 0.20000000000000018
533.223 0.1566700000000001
533.525 0.18999999999999995
533.826 0.1766700000000001
534.127 0.18999999999999995
534.428 0.22999999999999998
534.73 0.17332999999999998
535.031 0.20667000000000035
535.332 0.18999999999999995
535.633 0.20999999999999996
535.935 0.20000000000000018
536.236 0.18667000000000034
536.537 0.20000000000000018
536.838 0.20999999999999996
537.14 0.19667000000000012
537.441 0.2200000000000002
537.742 0.21333000000000002
538.043 0.23333000000000004
538.344 0.22999999999999998
538.645 0.19667000000000012
538.946 0.1766700000000001
539.248 0.16667000000000032
539.549 0.22333000000000025
539.85 0.20667000000000035
540.151 0.1766700000000001
540.452 0.20667000000000035
540.753 0.19667000000000012
541.054 0.16000000000000014
541.353 0.18000000000000016
541.654 0.21333000000000002
541.955 0.18667000000000034
542.256 0.20667000000000035
542.557 0.20667000000000035
542.858 0.18000000000000016
543.159 0.18667000000000034
543.46 0.19667000000000012
543.761 0.22333000000000025
544.062 0.16999999999999993
544.363 0.16667000000000032
544.664 0.18000000000000016
544.963 0.1633300000000002
545.264 0.16667000000000032
545.565 0.18999999999999995
545.866 0.18000000000000016
546.167 0.15332999999999997
546.467 0.16999999999999993
546.768 0.14333000000000018
547.069 0.15000000000000036
547.368 0.17332999999999998
547.669 0.18667000000000034
547.97 0.1766700000000001
548.271 0.16000000000000014
548.571 0.14333000000000018
548.872 0.16000000000000014
549.173 0.1466700000000003
549.474 0.13667000000000007
549.773 0.16000000000000014
550.073 0.14333000000000018
550.374 0.13000000000000034
550.675 0.16667000000000032
550.976 0.13000000000000034
551.276 0.18000000000000016
551.575 0.15332999999999997
551.876 0.12667000000000028
552.176 0.11332999999999993
552.477 0.13000000000000034
552.778 0.11332999999999993
553.078 0.13000000000000034
553.377 0.14000000000000012
553.678 0.07333000000000034
553.978 0.12333000000000016
554.279 0.11332999999999993
554.579 0.13000000000000034
554.878 0.11332999999999993
555.179 0.08667000000000025
555.479 0.14000000000000012
555.78 0.09333000000000036
556.08 0.13667000000000007
556.379 0.0900000000000003
556.68 0.10667000000000026
556.98 0.11667000000000005
557.281 0.11000000000000032
557.581 0.09667000000000003
557.88 0.10667000000000026
558.18 0.10333000000000014
558.481 0.09667000000000003
558.781 0.12333000000000016
559.079 0.11332999999999993
559.38 0.12333000000000016
559.68 0.09667000000000003
559.981 0.11667000000000005
560.279 0.11332999999999993
560.58 0.07000000000000028
560.88 0.08667000000000025
561.18 0.09667000000000003
561.479 0.11000000000000032
561.779 0.09333000000000036
562.08 0.0900000000000003
562.38 0.10333000000000014
562.678 0.08667000000000025
562.979 0.13332999999999995
563.279 0.09333000000000036
563.579 0.08333000000000013
563.878 0.09333000000000036
564.178 0.10000000000000009
564.478 0.11667000000000005
564.778 0.09333000000000036
565.077 0.0900000000000003
565.377 0.10667000000000026
565.677 0.07333000000000034
565.975 0.09667000000000003
566.276 0.06000000000000005
566.576 0.08333000000000013
566.874 0.11000000000000032
567.174 0.10333000000000014
567.474 0.08667000000000025
567.775 0.08667000000000025
568.073 0.10667000000000026
568.373 0.13000000000000034
568.673 0.10333000000000014
568.971 0.07000000000000028
569.271 0.11667000000000005
569.571 0.0900000000000003
569.869 0.11667000000000005
570.17 0.06667000000000023
570.47 0.09667000000000003
570.768 0.07333000000000034
571.068 0.04667000000000021
571.368 0.11332999999999993
571.666 0.1200000000000001
571.966 0.08667000000000025
572.264 0.05333000000000032
572.564 0.10667000000000026
572.864 0.10333000000000014
573.162 0.11000000000000032
573.462 0.08333000000000013
573.762 0.10667000000000026
574.06 0.10000000000000009
574.36 0.10000000000000009
574.66 0.08333000000000013
574.958 0.10000000000000009
575.258 0.08667000000000025
575.556 0.09333000000000036
575.855 0.04333000000000009
576.155 0.11332999999999993
576.453 0.07333000000000034
576.753 0.08333000000000013
577.051 0.06333000000000011
577.351 0.10000000000000009
577.651 0.13000000000000034
577.948 0.11000000000000032
578.248 0.08333000000000013
578.546 0.13000000000000034
578.846 0.0900000000000003
579.146 0.0900000000000003
579.444 0.10667000000000026
579.743 0.06667000000000023
580.041 0.08333000000000013
580.341 0.08333000000000013
580.639 0.08333000000000013
580.938 0.10000000000000009
581.238 0.10333000000000014
581.536 0.13000000000000034
581.836 0.09667000000000003
582.133 0.08667000000000025
582.433 0.09667000000000003
582.731 0.08667000000000025
583.03 0.10000000000000009
583.328 0.09667000000000003
583.628 0.09667000000000003
583.927 0.11332999999999993
584.225 0.07667000000000002
584.524 0.10667000000000026
584.822 0.0900000000000003
585.122 0.0900000000000003
585.419 0.10667000000000026
585.719 0.09333000000000036
586.016 0.08333000000000013
586.316 0.10333000000000014
586.613 0.12333000000000016
586.913 0.08667000000000025
587.211 0.11000000000000032
587.51 0.11332999999999993
587.808 0.10667000000000026
588.107 0.09333000000000036
588.405 0.11332999999999993
588.704 0.11667000000000005
589.002 0.10667000000000026
589.301 0.10667000000000026
589.598 0.10000000000000009
589.898 0.08333000000000013
590.195 0.12667000000000028
590.495 0.11000000000000032
590.792 0.11000000000000032
591.092 0.12333000000000016
591.389 0.09667000000000003
591.688 0.09667000000000003
591.986 0.10333000000000014
592.285 0.13332999999999995
592.582 0.1200000000000001
592.88 0.11332999999999993
593.179 0.11000000000000032
593.476 0.1200000000000001
593.776 0.13667000000000007
594.073 0.11667000000000005
594.372 0.13332999999999995
594.67 0.16000000000000014
594.969 0.10000000000000009
595.266 0.13332999999999995
595.563 0.11332999999999993
595.863 0.13332999999999995
596.16 0.12667000000000028
596.459 0.14000000000000012
596.756 0.14000000000000012
597.056 0.13667000000000007
597.353 0.15332999999999997
597.65 0.13000000000000034
597.949 0.11000000000000032
598.246 0.15332999999999997
598.545 0.14000000000000012
598.843 0.12333000000000016
599.14 0.1200000000000001
599.439 0.1466700000000003
599.736 0.11332999999999993
600.035 0.15332999999999997
600.332 0.1633300000000002
600.629 0.1200000000000001
600.928 0.19333
601.225 0.18000000000000016
601.522 0.1766700000000001
601.822 0.13332999999999995
602.119 0.16000000000000014
602.418 0.1466700000000003
602.715 0.13332999999999995
603.012 0.1566700000000001
603.311 0.14333000000000018
603.608 0.17332999999999998
603.905 0.15000000000000036
604.204 0.15332999999999997
604.5 0.16667000000000032
604.797 0.12333000000000016
605.096 0.12333000000000016
605.393 0.1200000000000001
605.69 0.13667000000000007
605.989 0.12333000000000016
606.286 0.13332999999999995
606.583 0.12333000000000016
606.882 0.1200000000000001
607.179 0.13332999999999995
607.476 0.11332999999999993
607.774 0.09667000000000003
608.071 0.09667000000000003
608.368 0.1200000000000001
608.667 0.13667000000000007
608.964 0.11000000000000032
609.261 0.11332999999999993
609.559 0.14000000000000012
609.856 0.11667000000000005
610.153 0.10000000000000009
610.45 0.13332999999999995
610.748 0.11667000000000005
611.045 0.11667000000000005
611.342 0.13332999999999995
611.641 0.13332999999999995
611.937 0.12333000000000016
612.234 0.0900000000000003
612.531 0.09667000000000003
612.829 0.10333000000000014
613.126 0.09667000000000003
613.423 0.11000000000000032
613.719 0.11667000000000005
614.018 0.10333000000000014
614.315 0.11332999999999993
614.611 0.06667000000000023
614.908 0.1200000000000001
615.207 0.12333000000000016
615.503 0.10000000000000009
615.8 0.10000000000000009
616.096 0.10333000000000014
616.395 0.10333000000000014
616.691 0.12333000000000016
616.988 0.0900000000000003
617.285 0.10000000000000009
617.583 0.10333000000000014
617.88 0.08333000000000013
618.176 0.11667000000000005
618.473 0.11667000000000005
618.769 0.09333000000000036
619.068 0.11332999999999993
619.364 0.10000000000000009
619.661 0.11000000000000032
619.957 0.10667000000000026
620.253 0.1200000000000001
620.552 0.0900000000000003
620.848 0.11000000000000032
621.145 0.07000000000000028
621.441 0.10000000000000009
621.737 0.08667000000000025
622.036 0.10667000000000026
622.332 0.1200000000000001
622.629 0.0900000000000003
622.925 0.08333000000000013
623.221 0.09333000000000036
623.518 0.08000000000000007
623.816 0.10000000000000009
624.112 0.06000000000000005
624.409 0.10333000000000014
624.705 0.10667000000000026
625.001 0.10667000000000026
625.297 0.11667000000000005
625.596 0.1200000000000001
625.892 0.13000000000000034
626.188 0.12333000000000016
626.484 0.09667000000000003
626.781 0.10667000000000026
627.077 0.13667000000000007
627.373 0.09667000000000003
627.671 0.07000000000000028
627.968 0.08667000000000025
628.264 0.09667000000000003
628.56 0.11000000000000032
628.856 0.09333000000000036
629.152 0.09333000000000036
629.448 0.08000000000000007
629.744 0.0900000000000003
630.043 0.07667000000000002
630.339 0.11667000000000005
630.635 0.10000000000000009
630.931 0.11000000000000032
631.227 0.13000000000000034
631.523 0.11667000000000005
631.819 0.09667000000000003
632.115 0.13332999999999995
632.411 0.10000000000000009
632.707 0.13332999999999995
633.003 0.14000000000000012
633.301 0.13667000000000007
633.597 0.12667000000000028
633.893 0.13332999999999995
634.189 0.11000000000000032
634.485 0.13332999999999995
634.781 0.1200000000000001
635.077 0.10000000000000009
635.373 0.10333000000000014
635.669 0.11000000000000032
635.965 0.08000000000000007
636.261 0.1200000000000001
636.557 0.10000000000000009
636.853 0.12667000000000028
637.149 0.11000000000000032
637.445 0.1200000000000001
637.74 0.11000000000000032
638.036 0.1200000000000001
638.332 0.12333000000000016
638.628 0.15332999999999997
638.924 0.15000000000000036
639.22 0.14000000000000012
639.515 0.13332999999999995
639.813 0.14333000000000018
640.109 0.15000000000000036
640.405 0.09333000000000036
640.701 0.14333000000000018
640.996 0.15332999999999997
641.292 0.11000000000000032
641.588 0.18333000000000022
641.884 0.16999999999999993
642.179 0.14333000000000018
642.475 0.1633300000000002
642.771 0.16999999999999993
643.066 0.16999999999999993
643.36 0.16667000000000032
643.656 0.16000000000000014
643.951 0.18999999999999995
644.247 0.18000000000000016
644.543 0.1633300000000002
644.838 0.1633300000000002
645.134 0.18667000000000034
645.43 0.20667000000000035
645.725 0.1633300000000002
646.021 0.1633300000000002
646.316 0.18667000000000034
646.612 0.20333000000000023
646.908 0.16999999999999993
647.203 0.14333000000000018
647.499 0.16667000000000032
647.794 0.14333000000000018
648.09 0.16999999999999993
648.385 0.21667000000000014
648.681 0.19333
648.976 0.20667000000000035
649.272 0.16667000000000032
649.565 0.16667000000000032
649.861 0.1466700000000003
650.156 0.1766700000000001
650.452 0.1766700000000001
650.747 0.19333
651.043 0.18999999999999995
651.338 0.1466700000000003
651.633 0.11332999999999993
651.929 0.17332999999999998
652.224 0.11667000000000005
652.52 0.13667000000000007
652.813 0.16999999999999993
653.108 0.13332999999999995
653.404 0.15000000000000036
653.699 0.13332999999999995
653.994 0.1566700000000001
654.29 0.15332999999999997
654.585 0.1466700000000003
654.88 0.15332999999999997
655.174 0.14333000000000018
655.469 0.15332999999999997
655.764 0.11332999999999993
656.059 0.13000000000000034
656.355 0.13332999999999995
656.65 0.13332999999999995
656.945 0.13332999999999995
657.238 0.12333000000000016
657.534 0.14000000000000012
657.829 0.13667000000000007
658.124 0.14000000000000012
658.419 0.11000000000000032
658.714 0.12333000000000016
659.01 0.15332999999999997
659.303 0.11332999999999993
659.598 0.10000000000000009
659.893 0.11000000000000032
660.188 0.1200000000000001
660.483 0.09667000000000003
660.776 0.1566700000000001
661.072 0.11667000000000005
661.367 0.11000000000000032
661.662 0.12667000000000028
661.957 0.11000000000000032
662.252 0.1566700000000001
662.545 0.07333000000000034
662.84 0.13000000000000034
663.135 0.11332999999999993
663.43 0.10000000000000009
663.723 0.12333000000000016
664.018 0.12333000000000016
664.313 0.10667000000000026
664.608 0.0900000000000003
664.903 0.10000000000000009
665.196 0.12667000000000028
665.491 0.11000000000000032
665.786 0.07667000000000002
666.081 0.09333000000000036
666.374 0.09667000000000003
666.669 0.06667000000000023
666.964 0.11667000000000005
667.259 0.10667000000000026
667.552 0.09667000000000003
667.846 0.10000000000000009
668.141 0.08667000000000025
668.436 0.07000000000000028
668.729 0.10000000000000009
669.024 0.10000000000000009
669.319 0.11667000000000005
669.614 0.07667000000000002
669.906 0.11000000000000032
670.201 0.11332999999999993
670.496 0.07333000000000034
670.791 0.09667000000000003
671.084 0.07333000000000034
671.378 0.0900000000000003
671.673 0.09333000000000036
671.966 0.0900000000000003
672.261 0.0900000000000003
672.555 0.09667000000000003
672.85 0.07667000000000002
673.143 0.07333000000000034
673.438 0.06667000000000023
673.732 0.07000000000000028
674.025 0.09333000000000036
674.32 0.10000000000000009
674.614 0.0900000000000003
674.907 0.08000000000000007
675.202 0.0900000000000003
675.496 0.08000000000000007
675.789 0.07667000000000002
676.083 0.08667000000000025
676.378 0.10667000000000026
676.671 0.10000000000000009
676.965 0.04333000000000009
677.26 0.07667000000000002
677.552 0.0900000000000003
677.847 0.08667000000000025
678.141 0.0900000000000003
678.434 0.0900000000000003
678.729 0.06333000000000011
679.023 0.11667000000000005
679.316 0.07333000000000034
679.61 0.0900000000000003
679.905 0.09333000000000036
680.197 0.08000000000000007
680.492 0.08000000000000007
680.784 0.08000000000000007
681.078 0.0900000000000003
681.373 0.0900000000000003
681.665 0.09333000000000036
