# Created: 2019-11-28 14:59:00.527912
# rshift intensity
86.6238 0.08333000000000013
86.9486 0.10000000000000009
87.2712 0.09666000000000041
87.596 0.0900000000000003
87.9207 0.0900000000000003
88.2454 0.08666000000000018
88.5702 0.12333000000000016
88.8927 0.10333000000000014
89.2174 0.07333000000000034
89.5421 0.08000000000000007
89.8668 0.08333000000000013
90.1914 0.11333000000000037
90.514 0.0900000000000003
90.8386 0.0766600000000004
91.1632 0.07333000000000034
91.4878 0.13000000000000034
91.8124 0.09666000000000041
92.1349 0.08666000000000018
92.4595 0.10333000000000014
92.7841 0.09333000000000036
93.1086 0.10000000000000009
93.431 0.07333000000000034
93.7556 0.09666000000000041
94.0801 0.0900000000000003
94.4046 0.09333000000000036
94.727 0.0900000000000003
95.0515 0.10000000000000009
95.376 0.0766600000000004
95.7004 0.05666000000000038
96.0227 0.09333000000000036
96.3472 0.10000000000000009
96.6716 0.08333000000000013
96.9961 0.10000000000000009
97.3183 0.0766600000000004
97.6427 0.14333000000000018
97.9671 0.0900000000000003
98.2915 0.1066600000000002
98.6137 0.10333000000000014
98.9381 0.1066600000000002
99.2624 0.0900000000000003
99.5868 0.11000000000000032
99.909 0.12666000000000022
100.233 0.1533300000000004
100.558 0.10333000000000014
100.88 0.11000000000000032
101.204 0.13000000000000034
101.528 0.11333000000000037
101.853 0.12666000000000022
102.175 0.0900000000000003
102.499 0.14000000000000012
102.823 0.1333300000000004
103.145 0.12333000000000016
103.469 0.11665999999999999
103.794 0.1066600000000002
104.116 0.09666000000000041
104.44 0.0900000000000003
104.764 0.08666000000000018
105.086 0.1333300000000004
105.41 0.11665999999999999
105.734 0.10333000000000014
106.056 0.11665999999999999
106.38 0.08666000000000018
106.704 0.08000000000000007
107.026 0.09666000000000041
107.35 0.10333000000000014
107.674 0.09666000000000041
107.996 0.10000000000000009
108.32 0.10000000000000009
108.644 0.08000000000000007
108.966 0.10333000000000014
109.29 0.08333000000000013
109.614 0.08333000000000013
109.936 0.0900000000000003
110.26 0.11000000000000032
110.584 0.08333000000000013
110.906 0.1066600000000002
111.23 0.09666000000000041
111.552 0.11333000000000037
111.875 0.10000000000000009
112.199 0.08666000000000018
112.521 0.08000000000000007
112.845 0.1066600000000002
113.169 0.13666
113.491 0.0766600000000004
113.814 0.0766600000000004
114.136 0.1066600000000002
114.46 0.10333000000000014
114.784 0.07333000000000034
115.105 0.0900000000000003
115.429 0.11000000000000032
115.751 0.1066600000000002
116.075 0.10333000000000014
116.398 0.0900000000000003
116.72 0.10333000000000014
117.044 0.09333000000000036
117.365 0.09333000000000036
117.689 0.11000000000000032
118.013 0.10000000000000009
118.334 0.11333000000000037
118.658 0.13000000000000034
118.979 0.10000000000000009
119.303 0.09333000000000036
119.625 0.10000000000000009
119.948 0.07000000000000028
120.272 0.10000000000000009
120.593 0.09666000000000041
120.917 0.08666000000000018
121.238 0.09666000000000041
121.562 0.13000000000000034
121.883 0.0900000000000003
122.207 0.12666000000000022
122.528 0.11000000000000032
122.852 0.0766600000000004
123.175 0.11333000000000037
123.497 0.1066600000000002
123.82 0.0900000000000003
124.142 0.09666000000000041
124.465 0.11000000000000032
124.786 0.11333000000000037
125.11 0.05333000000000032
125.431 0.08333000000000013
125.755 0.07333000000000034
126.076 0.0766600000000004
126.399 0.08666000000000018
126.721 0.07000000000000028
127.044 0.08000000000000007
127.365 0.09333000000000036
127.689 0.1200000000000001
128.01 0.10000000000000009
128.333 0.1066600000000002
128.654 0.08000000000000007
128.978 0.08666000000000018
129.299 0.11333000000000037
129.622 0.1066600000000002
129.943 0.07333000000000034
130.267 0.0766600000000004
130.588 0.11000000000000032
130.911 0.0900000000000003
131.232 0.0900000000000003
131.555 0.10000000000000009
131.876 0.1066600000000002
132.2 0.10000000000000009
132.521 0.06666000000000016
132.844 0.09333000000000036
133.165 0.08000000000000007
133.488 0.10000000000000009
133.809 0.11333000000000037
134.132 0.09666000000000041
134.453 0.09666000000000041
134.774 0.09666000000000041
135.097 0.1066600000000002
135.418 0.1066600000000002
135.741 0.09333000000000036
136.062 0.09333000000000036
136.385 0.06333000000000011
136.706 0.08333000000000013
137.029 0.08666000000000018
137.35 0.1066600000000002
137.671 0.06000000000000005
137.994 0.11000000000000032
138.315 0.08666000000000018
138.638 0.08333000000000013
138.959 0.09666000000000041
139.282 0.09333000000000036
139.603 0.0900000000000003
139.923 0.10000000000000009
140.246 0.0900000000000003
140.567 0.07333000000000034
140.89 0.10000000000000009
141.211 0.09666000000000041
141.532 0.06333000000000011
141.854 0.1066600000000002
142.175 0.1200000000000001
142.498 0.08666000000000018
142.819 0.09333000000000036
143.139 0.08000000000000007
143.462 0.09666000000000041
143.783 0.0766600000000004
144.106 0.08666000000000018
144.426 0.1066600000000002
144.747 0.06666000000000016
145.07 0.08333000000000013
145.39 0.0766600000000004
145.711 0.08333000000000013
146.034 0.09666000000000041
146.354 0.0900000000000003
146.675 0.08000000000000007
146.998 0.11000000000000032
147.318 0.07333000000000034
147.641 0.10000000000000009
147.961 0.09333000000000036
148.282 0.10333000000000014
148.605 0.08000000000000007
148.925 0.11000000000000032
149.246 0.08333000000000013
149.568 0.09333000000000036
149.889 0.040000000000000036
150.209 0.08000000000000007
150.532 0.0766600000000004
150.852 0.10000000000000009
151.172 0.10000000000000009
151.495 0.08666000000000018
151.815 0.09666000000000041
152.136 0.0900000000000003
152.458 0.10333000000000014
152.779 0.07000000000000028
153.099 0.11333000000000037
153.422 0.09666000000000041
153.742 0.11665999999999999
154.062 0.08666000000000018
154.382 0.08333000000000013
154.705 0.07000000000000028
155.025 0.10333000000000014
155.345 0.10000000000000009
155.668 0.11333000000000037
155.988 0.09333000000000036
156.308 0.06000000000000005
156.631 0.10000000000000009
156.951 0.08333000000000013
157.271 0.07333000000000034
157.591 0.09666000000000041
157.914 0.11000000000000032
158.234 0.0766600000000004
158.554 0.0766600000000004
158.874 0.11333000000000037
159.197 0.09333000000000036
159.517 0.08333000000000013
159.837 0.08666000000000018
160.159 0.1200000000000001
160.479 0.0900000000000003
160.799 0.10000000000000009
161.119 0.07333000000000034
161.441 0.050000000000000266
161.762 0.11000000000000032
162.082 0.06000000000000005
162.402 0.08666000000000018
162.724 0.09333000000000036
163.044 0.08333000000000013
163.364 0.08333000000000013
163.684 0.08000000000000007
164.004 0.0766600000000004
164.326 0.07333000000000034
164.646 0.0766600000000004
164.966 0.10333000000000014
165.286 0.0900000000000003
165.608 0.08666000000000018
165.928 0.06666000000000016
166.248 0.07333000000000034
166.568 0.0900000000000003
166.887 0.0900000000000003
167.209 0.03666000000000036
167.529 0.09333000000000036
167.849 0.06666000000000016
168.169 0.07333000000000034
168.489 0.07000000000000028
168.811 0.09666000000000041
169.131 0.08000000000000007
169.45 0.09666000000000041
169.77 0.0766600000000004
170.09 0.0766600000000004
170.412 0.11000000000000032
170.732 0.08333000000000013
171.051 0.0900000000000003
171.371 0.06333000000000011
171.691 0.10333000000000014
172.01 0.08333000000000013
172.332 0.06666000000000016
172.652 0.06333000000000011
172.972 0.0766600000000004
173.291 0.07333000000000034
173.611 0.1066600000000002
173.931 0.0900000000000003
174.252 0.05666000000000038
174.572 0.0900000000000003
174.892 0.07333000000000034
175.211 0.08333000000000013
175.531 0.10333000000000014
175.85 0.1066600000000002
176.17 0.08000000000000007
176.492 0.08666000000000018
176.811 0.11333000000000037
177.131 0.06000000000000005
177.45 0.11333000000000037
177.77 0.07000000000000028
178.089 0.08000000000000007
178.409 0.08666000000000018
178.728 0.09333000000000036
179.05 0.10000000000000009
179.369 0.10000000000000009
179.689 0.10333000000000014
180.008 0.08000000000000007
180.327 0.09333000000000036
180.647 0.0766600000000004
180.966 0.0766600000000004
181.286 0.08000000000000007
181.605 0.0766600000000004
181.924 0.07000000000000028
182.246 0.11333000000000037
182.565 0.11333000000000037
182.885 0.06666000000000016
183.204 0.08000000000000007
183.523 0.0900000000000003
183.843 0.09666000000000041
184.162 0.08000000000000007
184.481 0.0766600000000004
184.8 0.09333000000000036
185.12 0.0900000000000003
185.439 0.08000000000000007
185.758 0.08000000000000007
186.077 0.09333000000000036
186.397 0.09666000000000041
186.716 0.05666000000000038
187.037 0.09333000000000036
187.356 0.08666000000000018
187.675 0.07000000000000028
187.995 0.12333000000000016
188.314 0.06333000000000011
188.633 0.10000000000000009
188.952 0.11000000000000032
189.271 0.09666000000000041
189.59 0.10333000000000014
189.909 0.0900000000000003
190.228 0.09666000000000041
190.548 0.11333000000000037
190.867 0.08000000000000007
191.186 0.0900000000000003
191.505 0.1200000000000001
191.824 0.1066600000000002
192.143 0.0900000000000003
192.462 0.1333300000000004
192.781 0.10333000000000014
193.1 0.08666000000000018
193.419 0.0900000000000003
193.738 0.06333000000000011
194.057 0.08000000000000007
194.376 0.06666000000000016
194.694 0.11665999999999999
195.013 0.09333000000000036
195.332 0.0900000000000003
195.651 0.0900000000000003
195.97 0.10333000000000014
196.289 0.09333000000000036
196.608 0.08333000000000013
196.927 0.08666000000000018
197.246 0.0900000000000003
197.564 0.08666000000000018
197.883 0.10000000000000009
198.202 0.09333000000000036
198.521 0.08666000000000018
198.84 0.06000000000000005
199.158 0.09333000000000036
199.477 0.0766600000000004
199.796 0.10333000000000014
200.115 0.07333000000000034
200.431 0.0900000000000003
200.75 0.08666000000000018
201.069 0.06333000000000011
201.387 0.08333000000000013
201.706 0.08333000000000013
202.025 0.09333000000000036
202.343 0.1066600000000002
202.662 0.1200000000000001
202.981 0.11000000000000032
203.299 0.11333000000000037
203.618 0.07333000000000034
203.937 0.10000000000000009
204.255 0.10000000000000009
204.574 0.08666000000000018
204.89 0.08666000000000018
205.209 0.12666000000000022
205.527 0.09333000000000036
205.846 0.11000000000000032
206.165 0.12666000000000022
206.483 0.11000000000000032
206.802 0.1066600000000002
207.12 0.09666000000000041
207.439 0.12333000000000016
207.757 0.11000000000000032
208.073 0.0766600000000004
208.392 0.10000000000000009
208.71 0.1066600000000002
209.029 0.1066600000000002
209.347 0.0900000000000003
209.666 0.10333000000000014
209.984 0.07333000000000034
210.302 0.12333000000000016
210.619 0.09666000000000041
210.937 0.11665999999999999
211.255 0.10333000000000014
211.574 0.10000000000000009
211.892 0.11000000000000032
212.21 0.1066600000000002
212.529 0.06333000000000011
212.845 0.0900000000000003
213.163 0.1200000000000001
213.482 0.09666000000000041
213.8 0.06666000000000016
214.118 0.08666000000000018
214.436 0.08666000000000018
214.755 0.13000000000000034
215.071 0.10333000000000014
215.389 0.1066600000000002
215.707 0.09333000000000036
216.025 0.11000000000000032
216.344 0.0766600000000004
216.66 0.10000000000000009
216.978 0.10333000000000014
217.296 0.11000000000000032
217.614 0.10000000000000009
217.932 0.08666000000000018
218.25 0.10000000000000009
218.566 0.11333000000000037
218.884 0.1200000000000001
219.203 0.10000000000000009
219.521 0.14333000000000018
219.839 0.11333000000000037
220.155 0.11000000000000032
220.473 0.08666000000000018
220.791 0.12666000000000022
221.109 0.11665999999999999
221.425 0.08333000000000013
221.743 0.11333000000000037
222.061 0.12666000000000022
222.379 0.12666000000000022
222.697 0.09666000000000041
223.013 0.10333000000000014
223.33 0.12333000000000016
223.648 0.10333000000000014
223.966 0.1200000000000001
224.282 0.11000000000000032
224.6 0.11333000000000037
224.918 0.10333000000000014
225.236 0.11665999999999999
225.552 0.1200000000000001
225.869 0.13000000000000034
226.187 0.1200000000000001
226.505 0.11333000000000037
226.821 0.12666000000000022
227.139 0.11000000000000032
227.457 0.13000000000000034
227.774 0.11665999999999999
228.09 0.1066600000000002
228.408 0.11333000000000037
228.726 0.1200000000000001
229.043 0.12666000000000022
229.359 0.11333000000000037
229.677 0.1333300000000004
229.994 0.11000000000000032
230.31 0.1066600000000002
230.628 0.09333000000000036
230.945 0.11665999999999999
231.261 0.11333000000000037
231.579 0.1200000000000001
231.896 0.08000000000000007
232.214 0.08666000000000018
232.529 0.08000000000000007
232.847 0.11333000000000037
233.165 0.10333000000000014
233.48 0.07000000000000028
233.798 0.11333000000000037
234.115 0.11000000000000032
234.431 0.09666000000000041
234.748 0.08333000000000013
235.066 0.1066600000000002
235.381 0.13000000000000034
235.699 0.10000000000000009
236.016 0.09666000000000041
236.332 0.07333000000000034
236.649 0.11333000000000037
236.967 0.11000000000000032
237.282 0.1200000000000001
237.6 0.0900000000000003
237.917 0.10333000000000014
238.232 0.09333000000000036
238.55 0.06000000000000005
238.867 0.0900000000000003
239.183 0.06000000000000005
239.5 0.09666000000000041
239.817 0.09333000000000036
240.133 0.11333000000000037
240.45 0.09333000000000036
240.765 0.1066600000000002
241.083 0.11000000000000032
241.4 0.07333000000000034
241.715 0.08666000000000018
242.032 0.08666000000000018
242.35 0.10333000000000014
242.665 0.08333000000000013
242.982 0.11000000000000032
243.297 0.09333000000000036
243.615 0.10000000000000009
243.932 0.09666000000000041
244.247 0.08333000000000013
244.564 0.11000000000000032
244.879 0.06666000000000016
245.197 0.12333000000000016
245.514 0.10000000000000009
245.829 0.09666000000000041
246.146 0.08333000000000013
246.461 0.08666000000000018
246.778 0.0900000000000003
247.095 0.09333000000000036
247.41 0.11665999999999999
247.728 0.08000000000000007
248.043 0.11000000000000032
248.36 0.10333000000000014
248.675 0.06666000000000016
248.992 0.08333000000000013
249.307 0.07333000000000034
249.624 0.1200000000000001
249.941 0.09333000000000036
250.256 0.10000000000000009
250.573 0.0766600000000004
250.888 0.09333000000000036
251.205 0.09333000000000036
251.519 0.09666000000000041
251.836 0.06333000000000011
252.151 0.08666000000000018
252.468 0.08000000000000007
252.783 0.10000000000000009
253.1 0.11000000000000032
253.417 0.07333000000000034
253.732 0.13000000000000034
254.049 0.1200000000000001
254.363 0.1066600000000002
254.68 0.08333000000000013
254.995 0.08333000000000013
255.312 0.10000000000000009
255.627 0.10333000000000014
255.944 0.10333000000000014
256.258 0.10000000000000009
256.575 0.10333000000000014
256.89 0.0766600000000004
257.207 0.11333000000000037
257.521 0.10333000000000014
257.838 0.08666000000000018
258.153 0.11000000000000032
258.469 0.07000000000000028
258.784 0.12333000000000016
259.101 0.08333000000000013
259.415 0.0900000000000003
259.732 0.09333000000000036
260.047 0.09333000000000036
260.363 0.08000000000000007
260.678 0.08000000000000007
260.993 0.10000000000000009
261.309 0.11333000000000037
261.624 0.09333000000000036
261.94 0.11333000000000037
262.255 0.09333000000000036
262.572 0.09666000000000041
262.886 0.09333000000000036
263.203 0.10333000000000014
263.517 0.0900000000000003
263.834 0.08666000000000018
264.148 0.1066600000000002
264.463 0.08333000000000013
264.779 0.08000000000000007
265.094 0.1066600000000002
265.41 0.09666000000000041
265.724 0.11665999999999999
266.041 0.09666000000000041
266.355 0.08333000000000013
266.67 0.10000000000000009
266.986 0.09333000000000036
267.3 0.10333000000000014
267.617 0.0766600000000004
267.931 0.13000000000000034
268.248 0.09666000000000041
268.562 0.09666000000000041
268.876 0.1066600000000002
269.193 0.10333000000000014
269.507 0.09333000000000036
269.823 0.11333000000000037
270.138 0.1200000000000001
270.452 0.10333000000000014
270.768 0.08666000000000018
271.082 0.0900000000000003
271.397 0.11665999999999999
271.713 0.10000000000000009
272.027 0.10000000000000009
272.343 0.11333000000000037
272.657 0.10000000000000009
272.972 0.08333000000000013
273.288 0.09333000000000036
273.602 0.11665999999999999
273.916 0.08000000000000007
274.232 0.0900000000000003
274.546 0.09333000000000036
274.863 0.09666000000000041
275.177 0.11665999999999999
275.491 0.08666000000000018
275.807 0.09333000000000036
276.121 0.09333000000000036
276.435 0.10333000000000014
276.751 0.11333000000000037
277.065 0.11333000000000037
277.379 0.08000000000000007
277.695 0.09333000000000036
278.009 0.1066600000000002
278.323 0.10000000000000009
278.639 0.11000000000000032
278.953 0.12666000000000022
279.267 0.09666000000000041
279.583 0.11000000000000032
279.897 0.14666000000000023
280.211 0.11665999999999999
280.525 0.13000000000000034
280.841 0.07333000000000034
281.155 0.11665999999999999
281.469 0.10333000000000014
281.785 0.0766600000000004
282.099 0.12666000000000022
282.412 0.07000000000000028
282.728 0.1200000000000001
283.042 0.11665999999999999
283.356 0.09333000000000036
283.67 0.1066600000000002
283.986 0.12666000000000022
284.299 0.11333000000000037
284.613 0.14000000000000012
284.929 0.11000000000000032
285.243 0.10333000000000014
285.556 0.13000000000000034
285.87 0.14333000000000018
286.186 0.09666000000000041
286.5 0.09666000000000041
286.813 0.11665999999999999
287.127 0.10000000000000009
287.443 0.0900000000000003
287.756 0.14000000000000012
288.07 0.0900000000000003
288.384 0.09666000000000041
288.699 0.09666000000000041
289.013 0.11000000000000032
289.327 0.11333000000000037
289.64 0.10000000000000009
289.956 0.1066600000000002
290.27 0.0900000000000003
290.583 0.09333000000000036
290.897 0.11665999999999999
291.21 0.13000000000000034
291.526 0.10333000000000014
291.839 0.1333300000000004
292.153 0.09666000000000041
292.466 0.11333000000000037
292.782 0.1066600000000002
293.095 0.09333000000000036
293.409 0.13000000000000034
293.722 0.1066600000000002
294.036 0.10000000000000009
294.351 0.1200000000000001
294.665 0.14333000000000018
294.978 0.11333000000000037
295.291 0.11000000000000032
295.605 0.11665999999999999
295.92 0.09666000000000041
296.234 0.12333000000000016
296.547 0.08333000000000013
296.86 0.1200000000000001
297.174 0.0900000000000003
297.487 0.1066600000000002
297.802 0.10333000000000014
298.116 0.1633300000000002
298.429 0.1533300000000004
298.742 0.09333000000000036
299.056 0.11000000000000032
299.369 0.13666
299.684 0.1200000000000001
299.997 0.11665999999999999
300.311 0.16000000000000014
300.624 0.09666000000000041
300.937 0.06666000000000016
301.25 0.1333300000000004
301.564 0.11665999999999999
301.879 0.11665999999999999
302.192 0.13000000000000034
302.505 0.11000000000000032
302.818 0.12666000000000022
303.131 0.14000000000000012
303.445 0.1066600000000002
303.758 0.1066600000000002
304.071 0.12666000000000022
304.386 0.11665999999999999
304.699 0.1333300000000004
305.012 0.1066600000000002
305.325 0.11665999999999999
305.638 0.13666
305.951 0.14000000000000012
306.264 0.07000000000000028
306.577 0.10000000000000009
306.89 0.14000000000000012
307.203 0.13000000000000034
307.518 0.13666
307.831 0.12666000000000022
308.144 0.15000000000000036
308.457 0.13666
308.77 0.1333300000000004
309.083 0.15666000000000002
309.396 0.13000000000000034
309.709 0.13000000000000034
310.022 0.14333000000000018
310.335 0.12666000000000022
310.648 0.11665999999999999
310.961 0.12666000000000022
311.273 0.14666000000000023
311.588 0.1533300000000004
311.901 0.1333300000000004
312.214 0.1633300000000002
312.527 0.14666000000000023
312.84 0.1200000000000001
313.152 0.13666
313.465 0.13000000000000034
313.778 0.13666
314.091 0.12333000000000016
314.404 0.1333300000000004
314.716 0.11000000000000032
315.029 0.1333300000000004
315.342 0.11000000000000032
315.654 0.12333000000000016
315.967 0.14000000000000012
316.28 0.11000000000000032
316.593 0.15000000000000036
316.905 0.1200000000000001
317.218 0.11665999999999999
317.531 0.12333000000000016
317.843 0.11665999999999999
318.156 0.14000000000000012
318.468 0.13000000000000034
318.781 0.13666
319.094 0.12333000000000016
319.406 0.13000000000000034
319.719 0.13000000000000034
320.031 0.1533300000000004
320.344 0.15000000000000036
320.656 0.1200000000000001
320.969 0.16000000000000014
321.281 0.1533300000000004
321.594 0.14333000000000018
321.906 0.0900000000000003
322.219 0.12666000000000022
322.531 0.11000000000000032
322.844 0.14000000000000012
323.156 0.15666000000000002
323.469 0.18000000000000016
323.781 0.15000000000000036
324.094 0.1333300000000004
324.406 0.12666000000000022
324.719 0.15666000000000002
325.031 0.14000000000000012
325.341 0.11665999999999999
325.654 0.11333000000000037
325.966 0.14000000000000012
326.278 0.1533300000000004
326.591 0.12333000000000016
326.903 0.13666
327.215 0.16666000000000025
327.528 0.12666000000000022
327.84 0.1200000000000001
328.152 0.1900000000000004
328.465 0.15000000000000036
328.777 0.1200000000000001
329.089 0.18333000000000022
329.399 0.12333000000000016
329.711 0.13666
330.024 0.1200000000000001
330.336 0.1633300000000002
330.648 0.13000000000000034
330.96 0.13666
331.272 0.14000000000000012
331.585 0.12666000000000022
331.897 0.1633300000000002
332.209 0.1200000000000001
332.519 0.16000000000000014
332.831 0.14666000000000023
333.143 0.13666
333.455 0.15666000000000002
333.767 0.14666000000000023
334.08 0.15666000000000002
334.392 0.16000000000000014
334.704 0.14666000000000023
335.014 0.1633300000000002
335.326 0.15000000000000036
335.638 0.18333000000000022
335.95 0.14666000000000023
336.262 0.16000000000000014
336.574 0.12333000000000016
336.886 0.13000000000000034
337.196 0.13666
337.508 0.14333000000000018
337.82 0.1533300000000004
338.132 0.15666000000000002
338.444 0.1533300000000004
338.755 0.1533300000000004
339.065 0.14333000000000018
339.377 0.17000000000000037
339.689 0.17332999999999998
340.001 0.1900000000000004
340.313 0.1533300000000004
340.625 0.15666000000000002
340.935 0.1333300000000004
341.246 0.16666000000000025
341.558 0.11000000000000032
341.87 0.18000000000000016
342.182 0.18333000000000022
342.492 0.1900000000000004
342.803 0.14666000000000023
343.115 0.17000000000000037
343.427 0.13666
343.739 0.18000000000000016
344.048 0.20000000000000018
344.36 0.17666000000000004
344.672 0.17000000000000037
344.984 0.1633300000000002
345.293 0.1633300000000002
345.605 0.1333300000000004
345.917 0.1633300000000002
346.228 0.18666000000000027
346.54 0.1633300000000002
346.85 0.17332999999999998
347.161 0.18000000000000016
347.473 0.1633300000000002
347.784 0.18666000000000027
348.094 0.17000000000000037
348.406 0.1533300000000004
348.717 0.2366600000000001
349.029 0.16666000000000025
349.338 0.1900000000000004
349.65 0.1533300000000004
349.961 0.18666000000000027
350.273 0.2066600000000003
350.582 0.20000000000000018
350.894 0.1533300000000004
351.205 0.17332999999999998
351.517 0.18000000000000016
351.826 0.18333000000000022
352.138 0.16000000000000014
352.449 0.17332999999999998
352.759 0.15666000000000002
353.07 0.19333
353.382 0.1533300000000004
353.693 0.18666000000000027
354.002 0.17332999999999998
354.314 0.16666000000000025
354.625 0.1900000000000004
354.934 0.19333
355.246 0.21333000000000002
355.557 0.16000000000000014
355.866 0.19333
356.178 0.1900000000000004
356.489 0.1900000000000004
356.798 0.16666000000000025
357.11 0.1900000000000004
357.421 0.1900000000000004
357.73 0.21333000000000002
358.041 0.18333000000000022
358.353 0.1900000000000004
358.662 0.19666000000000006
358.973 0.22333000000000025
359.284 0.2100000000000004
359.594 0.1900000000000004
359.905 0.1900000000000004
360.216 0.21333000000000002
360.525 0.20000000000000018
360.836 0.16000000000000014
361.147 0.16666000000000025
361.457 0.2200000000000002
361.768 0.18333000000000022
362.079 0.1633300000000002
362.388 0.19333
362.699 0.18000000000000016
363.01 0.1900000000000004
363.319 0.16666000000000025
363.63 0.22999999999999998
363.939 0.1900000000000004
364.25 0.18000000000000016
364.561 0.2200000000000002
364.87 0.17000000000000037
365.181 0.2066600000000003
365.492 0.19333
365.801 0.17666000000000004
366.112 0.19666000000000006
366.421 0.20000000000000018
366.732 0.20333000000000023
367.043 0.17000000000000037
367.352 0.18333000000000022
367.663 0.19666000000000006
367.972 0.18666000000000027
368.283 0.20333000000000023
368.592 0.21333000000000002
368.903 0.21666000000000007
369.214 0.20000000000000018
369.522 0.19333
369.833 0.19333
370.142 0.24666000000000032
370.453 0.2066600000000003
370.762 0.19333
371.073 0.16666000000000025
371.383 0.2100000000000004
371.692 0.23333000000000004
372.003 0.17666000000000004
372.312 0.19666000000000006
372.622 0.2100000000000004
372.931 0.20000000000000018
373.242 0.2200000000000002
373.551 0.17666000000000004
373.861 0.2200000000000002
374.172 0.21666000000000007
374.481 0.18000000000000016
374.791 0.16000000000000014
375.1 0.1900000000000004
375.411 0.22333000000000025
375.719 0.21333000000000002
376.03 0.20333000000000023
376.339 0.21333000000000002
376.649 0.18666000000000027
376.958 0.2100000000000004
377.269 0.20333000000000023
377.577 0.21666000000000007
377.888 0.23333000000000004
378.196 0.16666000000000025
378.507 0.20333000000000023
378.815 0.19666000000000006
379.126 0.2200000000000002
379.434 0.21666000000000007
379.745 0.22333000000000025
380.053 0.25333000000000006
380.364 0.2200000000000002
380.672 0.2100000000000004
380.983 0.2366600000000001
381.291 0.19333
381.602 0.21333000000000002
381.91 0.2266600000000003
382.221 0.19666000000000006
382.529 0.22333000000000025
382.837 0.25333000000000006
383.148 0.25
383.456 0.2366600000000001
383.767 0.23333000000000004
384.075 0.2200000000000002
384.385 0.23333000000000004
384.694 0.24333000000000027
385.004 0.2400000000000002
385.312 0.22999999999999998
385.623 0.21333000000000002
385.931 0.2266600000000003
386.239 0.25333000000000006
386.549 0.25333000000000006
386.858 0.23333000000000004
387.168 0.2200000000000002
387.476 0.22999999999999998
387.787 0.24333000000000027
388.095 0.24666000000000032
388.403 0.29666000000000015
388.713 0.2066600000000003
389.021 0.2066600000000003
389.332 0.28000000000000025
389.64 0.26666000000000034
389.948 0.29000000000000004
390.258 0.26666000000000034
390.566 0.2633300000000003
390.876 0.2266600000000003
391.184 0.2366600000000001
391.492 0.2366600000000001
391.803 0.27
392.111 0.24666000000000032
392.421 0.2933300000000001
392.729 0.26666000000000034
393.037 0.25
393.347 0.32333000000000034
393.655 0.2833300000000003
393.963 0.28000000000000025
394.273 0.26666000000000034
394.581 0.29000000000000004
394.891 0.2933300000000001
395.199 0.2633300000000003
395.507 0.29000000000000004
395.817 0.29666000000000015
396.125 0.33000000000000007
396.433 0.25
396.743 0.22999999999999998
397.051 0.28666000000000036
397.359 0.29000000000000004
397.669 0.3200000000000003
397.976 0.29000000000000004
398.284 0.2833300000000003
398.594 0.3366600000000002
398.902 0.29000000000000004
399.21 0.31333000000000055
399.52 0.26000000000000023
399.828 0.3366600000000002
400.135 0.3166600000000006
400.445 0.2633300000000003
400.753 0.2999999999999998
401.061 0.3433299999999999
401.368 0.3333300000000001
401.678 0.3033299999999999
401.986 0.34665999999999997
402.294 0.3600000000000003
402.603 0.2566600000000001
402.911 0.3166600000000006
403.219 0.32333000000000034
403.529 0.31333000000000055
403.836 0.2999999999999998
404.144 0.29000000000000004
404.452 0.3266600000000004
404.761 0.3433299999999999
405.069 0.3333300000000001
405.377 0.3200000000000003
405.686 0.3333300000000001
405.994 0.29666000000000015
406.301 0.3433299999999999
406.609 0.3100000000000005
406.919 0.2633300000000003
407.226 0.3033299999999999
407.534 0.2933300000000001
407.841 0.35000000000000053
408.151 0.3033299999999999
408.458 0.3366600000000002
408.766 0.2833300000000003
409.073 0.31333000000000055
409.383 0.3100000000000005
409.69 0.3266600000000004
409.998 0.25333000000000006
410.305 0.2999999999999998
410.613 0.2933300000000001
410.922 0.33000000000000007
411.23 0.3366600000000002
411.537 0.2366600000000001
411.845 0.3533300000000006
412.154 0.3266600000000004
412.461 0.32333000000000034
412.769 0.29000000000000004
413.076 0.3166600000000006
413.383 0.2999999999999998
413.693 0.28666000000000036
414.0 0.32333000000000034
414.307 0.3200000000000003
414.615 0.2633300000000003
414.922 0.33999999999999986
415.231 0.3100000000000005
415.539 0.33000000000000007
415.846 0.32333000000000034
416.153 0.3200000000000003
416.461 0.3333300000000001
416.768 0.3033299999999999
417.077 0.29666000000000015
417.384 0.28000000000000025
417.691 0.2933300000000001
417.999 0.32333000000000034
418.306 0.3166600000000006
418.613 0.3033299999999999
418.922 0.2833300000000003
419.229 0.28000000000000025
419.537 0.29000000000000004
419.844 0.30665999999999993
420.151 0.28000000000000025
420.458 0.28666000000000036
420.765 0.27
421.074 0.3333300000000001
421.381 0.30665999999999993
421.688 0.28666000000000036
421.995 0.33000000000000007
422.302 0.2833300000000003
422.609 0.23333000000000004
422.917 0.2999999999999998
423.226 0.27666000000000013
423.533 0.24333000000000027
423.84 0.29000000000000004
424.147 0.27
424.454 0.30665999999999993
424.761 0.2633300000000003
425.068 0.25333000000000006
425.374 0.2633300000000003
425.681 0.2933300000000001
425.988 0.25
426.297 0.27666000000000013
426.604 0.3166600000000006
426.911 0.24666000000000032
427.218 0.2633300000000003
427.525 0.3033299999999999
427.832 0.26666000000000034
428.139 0.2400000000000002
428.445 0.2633300000000003
428.752 0.2633300000000003
429.059 0.2633300000000003
429.366 0.26000000000000023
429.673 0.3100000000000005
429.98 0.25333000000000006
430.288 0.25333000000000006
430.595 0.25333000000000006
430.902 0.24666000000000032
431.209 0.2266600000000003
431.515 0.29000000000000004
431.822 0.24666000000000032
432.129 0.23333000000000004
432.436 0.2833300000000003
432.742 0.2066600000000003
433.049 0.23333000000000004
433.356 0.26000000000000023
433.662 0.21666000000000007
433.969 0.22999999999999998
434.276 0.25
434.582 0.26000000000000023
434.889 0.28000000000000025
435.196 0.2566600000000001
435.502 0.21666000000000007
435.809 0.22333000000000025
436.115 0.2566600000000001
436.422 0.2633300000000003
436.729 0.2366600000000001
437.035 0.21666000000000007
437.342 0.24666000000000032
437.648 0.25333000000000006
437.955 0.2266600000000003
438.261 0.26666000000000034
438.568 0.2200000000000002
438.874 0.24666000000000032
439.181 0.2400000000000002
439.487 0.2200000000000002
439.794 0.2566600000000001
440.1 0.22333000000000025
440.407 0.2400000000000002
440.713 0.20000000000000018
441.019 0.19666000000000006
441.326 0.22999999999999998
441.632 0.23333000000000004
441.939 0.2200000000000002
442.245 0.2400000000000002
442.551 0.17000000000000037
442.858 0.2100000000000004
443.164 0.2066600000000003
443.471 0.1633300000000002
443.775 0.2066600000000003
444.081 0.22999999999999998
444.387 0.2066600000000003
444.694 0.21666000000000007
445.0 0.2200000000000002
445.306 0.2100000000000004
445.613 0.21666000000000007
445.919 0.2366600000000001
446.225 0.18333000000000022
446.531 0.21333000000000002
446.838 0.20333000000000023
447.144 0.21666000000000007
447.45 0.2266600000000003
447.754 0.19666000000000006
448.06 0.22333000000000025
448.367 0.22333000000000025
448.673 0.2566600000000001
448.979 0.1900000000000004
449.285 0.23333000000000004
449.591 0.22333000000000025
449.897 0.2100000000000004
450.203 0.18333000000000022
450.51 0.22999999999999998
450.814 0.2400000000000002
451.12 0.17666000000000004
451.426 0.2200000000000002
451.732 0.2266600000000003
452.038 0.19333
452.344 0.28000000000000025
452.65 0.20333000000000023
452.954 0.24666000000000032
453.26 0.2400000000000002
453.566 0.21666000000000007
453.872 0.1633300000000002
454.178 0.2200000000000002
454.484 0.2366600000000001
454.79 0.2400000000000002
455.094 0.21666000000000007
455.4 0.23333000000000004
455.706 0.2266600000000003
456.012 0.22999999999999998
456.318 0.2566600000000001
456.623 0.24666000000000032
456.927 0.22999999999999998
457.233 0.2100000000000004
457.539 0.20333000000000023
457.845 0.25
458.151 0.22333000000000025
458.457 0.25
458.76 0.22999999999999998
459.066 0.25
459.372 0.22999999999999998
459.678 0.27
459.984 0.25333000000000006
460.287 0.22999999999999998
460.593 0.27666000000000013
460.899 0.24333000000000027
461.205 0.26000000000000023
461.51 0.23333000000000004
461.814 0.27666000000000013
462.12 0.22999999999999998
462.426 0.2400000000000002
462.731 0.27
463.035 0.2566600000000001
463.341 0.24666000000000032
463.646 0.25
463.952 0.2400000000000002
464.258 0.23333000000000004
464.561 0.2566600000000001
464.867 0.2733300000000001
465.172 0.2633300000000003
465.478 0.26000000000000023
465.782 0.3100000000000005
466.087 0.27666000000000013
466.393 0.21666000000000007
466.698 0.26666000000000034
467.002 0.23333000000000004
467.307 0.24666000000000032
467.613 0.2400000000000002
467.916 0.25333000000000006
468.222 0.26000000000000023
468.527 0.24666000000000032
468.833 0.25
469.136 0.28666000000000036
469.442 0.2733300000000001
469.747 0.26666000000000034
470.053 0.2266600000000003
470.356 0.26666000000000034
470.662 0.27
470.967 0.27666000000000013
471.27 0.33999999999999986
471.576 0.3799999999999999
471.881 0.4366599999999998
472.185 0.45999999999999996
472.49 0.48666000000000054
472.795 0.4800000000000004
473.101 0.5166599999999999
473.404 0.5
473.709 0.5233300000000005
474.015 0.4900000000000002
474.318 0.4900000000000002
474.623 0.4800000000000004
474.929 0.49333000000000027
475.232 0.4366599999999998
475.537 0.5233300000000005
475.842 0.4800000000000004
476.146 0.4466600000000005
476.451 0.5099999999999998
476.756 0.45333000000000023
477.059 0.46333
477.364 0.3799999999999999
477.668 0.32333000000000034
477.973 0.2933300000000001
478.278 0.25333000000000006
478.581 0.2366600000000001
478.886 0.24666000000000032
479.191 0.27666000000000013
479.494 0.2200000000000002
479.8 0.2400000000000002
480.105 0.2066600000000003
480.408 0.24666000000000032
480.713 0.2366600000000001
481.016 0.22999999999999998
481.321 0.18000000000000016
481.626 0.2366600000000001
481.929 0.21666000000000007
482.234 0.2400000000000002
482.537 0.25333000000000006
482.842 0.21333000000000002
483.147 0.23333000000000004
483.45 0.24666000000000032
483.755 0.26666000000000034
484.058 0.23333000000000004
484.363 0.2266600000000003
484.668 0.26666000000000034
484.971 0.18666000000000027
485.276 0.19666000000000006
485.579 0.2066600000000003
485.884 0.2200000000000002
486.187 0.21333000000000002
486.492 0.19666000000000006
486.796 0.23333000000000004
487.099 0.2100000000000004
487.404 0.20000000000000018
487.707 0.17666000000000004
488.012 0.22333000000000025
488.315 0.19666000000000006
488.62 0.2566600000000001
488.924 0.23333000000000004
489.227 0.19333
489.532 0.2100000000000004
489.835 0.2100000000000004
490.139 0.22999999999999998
490.442 0.21333000000000002
490.747 0.2266600000000003
491.05 0.20333000000000023
491.354 0.23333000000000004
491.657 0.20000000000000018
491.962 0.18333000000000022
492.265 0.22999999999999998
492.569 0.22333000000000025
492.872 0.2200000000000002
493.177 0.2400000000000002
493.479 0.24666000000000032
493.784 0.2366600000000001
494.087 0.2100000000000004
494.391 0.2400000000000002
494.694 0.2366600000000001
494.998 0.1900000000000004
495.301 0.23333000000000004
495.606 0.22333000000000025
495.908 0.2400000000000002
496.213 0.2366600000000001
496.515 0.2400000000000002
496.82 0.22999999999999998
497.122 0.2100000000000004
497.427 0.21333000000000002
497.729 0.1900000000000004
498.034 0.2400000000000002
498.336 0.20000000000000018
498.641 0.21333000000000002
498.943 0.21666000000000007
499.248 0.2400000000000002
499.55 0.2200000000000002
499.853 0.19666000000000006
500.157 0.21333000000000002
500.46 0.2400000000000002
500.764 0.2566600000000001
501.066 0.2266600000000003
501.371 0.2200000000000002
501.673 0.19666000000000006
501.975 0.22999999999999998
502.28 0.22999999999999998
502.582 0.22333000000000025
502.887 0.24666000000000032
503.189 0.26666000000000034
503.493 0.18333000000000022
503.796 0.22333000000000025
504.098 0.2633300000000003
504.402 0.18666000000000027
504.704 0.2200000000000002
505.009 0.2200000000000002
505.311 0.25333000000000006
505.613 0.2366600000000001
505.917 0.22333000000000025
506.22 0.2100000000000004
506.524 0.2266600000000003
506.826 0.23333000000000004
507.128 0.2100000000000004
507.432 0.2366600000000001
507.735 0.2633300000000003
508.039 0.24666000000000032
508.341 0.2366600000000001
508.643 0.24333000000000027
508.947 0.22333000000000025
509.249 0.25333000000000006
509.552 0.25333000000000006
509.856 0.24333000000000027
510.158 0.2266600000000003
510.46 0.23333000000000004
510.764 0.27666000000000013
511.066 0.2266600000000003
511.37 0.21666000000000007
511.672 0.2366600000000001
511.974 0.2400000000000002
512.278 0.27666000000000013
512.58 0.2566600000000001
512.882 0.2633300000000003
513.186 0.24333000000000027
513.488 0.2366600000000001
513.79 0.22999999999999998
514.094 0.24666000000000032
514.396 0.25
514.698 0.26666000000000034
515.0 0.23333000000000004
515.304 0.30665999999999993
515.606 0.2733300000000001
515.908 0.25
516.212 0.25
516.513 0.22999999999999998
516.815 0.25
517.119 0.27666000000000013
517.421 0.27666000000000013
517.723 0.2366600000000001
518.025 0.22999999999999998
518.329 0.25
518.63 0.22999999999999998
518.932 0.23333000000000004
519.236 0.2633300000000003
519.538 0.23333000000000004
519.839 0.22999999999999998
520.141 0.2833300000000003
520.445 0.26666000000000034
520.747 0.22333000000000025
521.048 0.27
521.35 0.2366600000000001
521.654 0.2200000000000002
521.956 0.28000000000000025
522.257 0.26000000000000023
522.559 0.2633300000000003
522.863 0.2200000000000002
523.164 0.26666000000000034
523.466 0.2366600000000001
523.768 0.2200000000000002
524.071 0.24333000000000027
524.373 0.2566600000000001
524.674 0.2733300000000001
524.976 0.2733300000000001
525.28 0.25
525.581 0.2366600000000001
525.883 0.28000000000000025
526.184 0.2733300000000001
526.486 0.2366600000000001
526.789 0.28666000000000036
527.091 0.26000000000000023
527.393 0.26666000000000034
527.694 0.2633300000000003
527.996 0.2733300000000001
528.299 0.26000000000000023
528.601 0.26000000000000023
528.902 0.30665999999999993
529.203 0.2633300000000003
529.505 0.2400000000000002
529.808 0.24666000000000032
530.11 0.25
530.411 0.2566600000000001
530.713 0.2566600000000001
531.014 0.24666000000000032
531.315 0.22333000000000025
531.619 0.2566600000000001
531.92 0.24333000000000027
532.222 0.26666000000000034
532.523 0.2633300000000003
532.824 0.2400000000000002
533.126 0.24333000000000027
533.429 0.26666000000000034
533.73 0.28000000000000025
534.031 0.21666000000000007
534.333 0.24333000000000027
534.634 0.2633300000000003
534.935 0.28000000000000025
535.237 0.2200000000000002
535.54 0.2366600000000001
535.841 0.25333000000000006
536.142 0.28000000000000025
536.444 0.25333000000000006
536.745 0.24333000000000027
537.046 0.2366600000000001
537.347 0.22333000000000025
537.648 0.2400000000000002
537.951 0.27666000000000013
538.253 0.2400000000000002
538.554 0.25333000000000006
538.855 0.27
539.156 0.26000000000000023
539.457 0.23333000000000004
539.758 0.2266600000000003
540.059 0.23333000000000004
540.36 0.2633300000000003
540.661 0.22999999999999998
540.963 0.22999999999999998
541.266 0.2633300000000003
541.567 0.2100000000000004
541.868 0.25
542.169 0.25
542.47 0.20333000000000023
542.771 0.20000000000000018
543.072 0.22999999999999998
543.373 0.2400000000000002
543.674 0.2400000000000002
543.975 0.22999999999999998
544.276 0.21666000000000007
544.577 0.2266600000000003
544.878 0.2200000000000002
545.178 0.22333000000000025
545.479 0.23333000000000004
545.78 0.18666000000000027
546.081 0.2200000000000002
546.382 0.1900000000000004
546.685 0.22333000000000025
546.986 0.21333000000000002
547.287 0.2400000000000002
547.588 0.22333000000000025
547.888 0.19333
548.189 0.18666000000000027
548.49 0.20000000000000018
548.791 0.16666000000000025
549.092 0.18333000000000022
549.392 0.20333000000000023
549.693 0.2066600000000003
549.994 0.18666000000000027
550.295 0.18333000000000022
550.596 0.18666000000000027
550.896 0.18666000000000027
551.197 0.19333
551.498 0.18000000000000016
551.798 0.21333000000000002
552.099 0.18666000000000027
552.4 0.21333000000000002
552.701 0.18333000000000022
553.001 0.18666000000000027
553.302 0.1633300000000002
553.6 0.15000000000000036
553.901 0.15666000000000002
554.202 0.15666000000000002
554.502 0.1533300000000004
554.803 0.16000000000000014
555.104 0.17666000000000004
555.404 0.1900000000000004
555.705 0.15666000000000002
556.005 0.1533300000000004
556.306 0.16000000000000014
556.606 0.16666000000000025
556.907 0.16000000000000014
557.207 0.15666000000000002
557.508 0.18000000000000016
557.808 0.18666000000000027
558.109 0.15000000000000036
558.409 0.17000000000000037
558.71 0.1900000000000004
559.008 0.17000000000000037
559.309 0.17666000000000004
559.609 0.1333300000000004
559.91 0.19333
560.21 0.15000000000000036
560.511 0.1900000000000004
560.811 0.17332999999999998
561.111 0.1200000000000001
561.412 0.14666000000000023
561.712 0.1533300000000004
562.01 0.17666000000000004
562.311 0.1900000000000004
562.611 0.17666000000000004
562.912 0.1633300000000002
563.212 0.16000000000000014
563.512 0.16666000000000025
563.813 0.15666000000000002
564.113 0.18333000000000022
564.413 0.1533300000000004
564.711 0.14666000000000023
565.012 0.17332999999999998
565.312 0.16666000000000025
565.612 0.13666
565.912 0.16000000000000014
566.213 0.12333000000000016
566.513 0.17332999999999998
566.811 0.17332999999999998
567.111 0.15666000000000002
567.411 0.18333000000000022
567.712 0.10000000000000009
568.012 0.1533300000000004
568.312 0.17332999999999998
568.61 0.16666000000000025
568.91 0.1900000000000004
569.21 0.1533300000000004
569.51 0.1333300000000004
569.811 0.13000000000000034
570.111 0.13666
570.409 0.15000000000000036
570.709 0.15666000000000002
571.009 0.20333000000000023
571.309 0.14333000000000018
571.609 0.1633300000000002
571.907 0.15000000000000036
572.207 0.14000000000000012
572.507 0.18666000000000027
572.807 0.12666000000000022
573.107 0.14666000000000023
573.405 0.14666000000000023
573.705 0.19333
574.005 0.17332999999999998
574.305 0.16000000000000014
574.603 0.18666000000000027
574.903 0.1633300000000002
575.203 0.12666000000000022
575.503 0.18000000000000016
575.803 0.13000000000000034
576.101 0.14000000000000012
576.401 0.13000000000000034
576.7 0.1533300000000004
577.0 0.17332999999999998
577.298 0.16000000000000014
577.598 0.16000000000000014
577.898 0.17000000000000037
578.198 0.1633300000000002
578.495 0.19333
578.795 0.1533300000000004
579.095 0.17000000000000037
579.395 0.20000000000000018
579.693 0.18000000000000016
579.992 0.17666000000000004
580.292 0.17000000000000037
580.59 0.16666000000000025
580.89 0.19666000000000006
581.189 0.20333000000000023
581.489 0.18333000000000022
581.787 0.16666000000000025
582.087 0.16666000000000025
582.386 0.17000000000000037
582.684 0.16666000000000025
582.984 0.17000000000000037
583.283 0.17332999999999998
583.581 0.15000000000000036
583.881 0.15666000000000002
584.18 0.18666000000000027
584.48 0.15000000000000036
584.777 0.1633300000000002
585.077 0.20000000000000018
585.377 0.15666000000000002
585.674 0.1533300000000004
585.974 0.12666000000000022
586.273 0.17000000000000037
586.571 0.17332999999999998
586.871 0.16000000000000014
587.17 0.17666000000000004
587.468 0.17000000000000037
587.767 0.19333
588.067 0.14666000000000023
588.364 0.18000000000000016
588.664 0.17332999999999998
588.963 0.19333
589.261 0.17000000000000037
589.56 0.18000000000000016
589.857 0.17000000000000037
590.157 0.15666000000000002
590.456 0.2066600000000003
590.754 0.2100000000000004
591.053 0.17332999999999998
591.353 0.18333000000000022
591.65 0.16666000000000025
591.949 0.16666000000000025
592.247 0.1900000000000004
592.546 0.18333000000000022
592.845 0.20333000000000023
593.143 0.1633300000000002
593.442 0.18000000000000016
593.739 0.19333
594.039 0.19333
594.338 0.18333000000000022
594.635 0.1533300000000004
594.935 0.21666000000000007
595.232 0.18000000000000016
595.531 0.2066600000000003
595.83 0.20000000000000018
596.128 0.1633300000000002
596.427 0.17666000000000004
596.724 0.18000000000000016
597.023 0.19333
597.32 0.20000000000000018
597.62 0.18666000000000027
597.919 0.17332999999999998
598.216 0.2200000000000002
598.515 0.21666000000000007
598.812 0.20000000000000018
599.111 0.1633300000000002
599.409 0.2200000000000002
599.708 0.2200000000000002
600.005 0.14000000000000012
600.304 0.17666000000000004
600.603 0.1900000000000004
600.9 0.18333000000000022
601.199 0.17000000000000037
601.496 0.19333
601.795 0.13000000000000034
602.092 0.1900000000000004
602.391 0.18000000000000016
602.688 0.19666000000000006
602.987 0.20333000000000023
603.284 0.19333
603.583 0.2100000000000004
603.88 0.20000000000000018
604.179 0.18666000000000027
604.476 0.19666000000000006
604.775 0.21666000000000007
605.072 0.1900000000000004
605.371 0.1900000000000004
605.668 0.1633300000000002
605.967 0.2100000000000004
606.264 0.2066600000000003
606.563 0.2100000000000004
606.86 0.19333
607.159 0.17000000000000037
607.455 0.18000000000000016
607.754 0.19333
608.051 0.18000000000000016
608.35 0.21333000000000002
608.647 0.24666000000000032
608.944 0.19666000000000006
609.242 0.17666000000000004
609.539 0.16000000000000014
609.838 0.20333000000000023
610.135 0.1900000000000004
610.434 0.17000000000000037
610.73 0.14666000000000023
611.029 0.18333000000000022
611.326 0.14333000000000018
611.622 0.20333000000000023
611.921 0.19333
612.218 0.1633300000000002
612.517 0.16666000000000025
612.813 0.18333000000000022
613.112 0.1633300000000002
613.409 0.1333300000000004
613.705 0.15000000000000036
614.004 0.1533300000000004
614.301 0.17000000000000037
614.599 0.18666000000000027
614.896 0.17000000000000037
615.192 0.18666000000000027
615.491 0.17000000000000037
615.788 0.14000000000000012
616.086 0.14000000000000012
616.383 0.19333
616.679 0.14333000000000018
616.978 0.15666000000000002
617.274 0.18666000000000027
617.573 0.15000000000000036
617.87 0.1533300000000004
618.166 0.16666000000000025
618.465 0.1533300000000004
618.761 0.1533300000000004
619.057 0.16666000000000025
619.356 0.17332999999999998
619.652 0.17332999999999998
619.951 0.13000000000000034
620.247 0.17332999999999998
620.544 0.17666000000000004
620.842 0.17332999999999998
621.139 0.16666000000000025
621.435 0.15666000000000002
621.733 0.15000000000000036
622.03 0.15000000000000036
622.326 0.14666000000000023
622.625 0.14000000000000012
622.921 0.16000000000000014
623.217 0.16000000000000014
623.516 0.16000000000000014
623.812 0.14000000000000012
624.108 0.18000000000000016
624.407 0.1533300000000004
624.703 0.17000000000000037
624.999 0.15666000000000002
625.295 0.1533300000000004
625.594 0.1633300000000002
625.89 0.14333000000000018
626.186 0.17332999999999998
626.484 0.14666000000000023
626.781 0.19333
627.077 0.1633300000000002
627.375 0.17000000000000037
627.671 0.16666000000000025
627.968 0.15000000000000036
628.264 0.15666000000000002
628.562 0.14666000000000023
628.858 0.16000000000000014
629.154 0.15666000000000002
629.452 0.15666000000000002
629.748 0.17000000000000037
630.045 0.17332999999999998
630.341 0.17000000000000037
630.639 0.18333000000000022
630.935 0.2100000000000004
631.231 0.17332999999999998
631.527 0.19333
631.825 0.1200000000000001
632.121 0.1633300000000002
632.417 0.18666000000000027
632.713 0.17332999999999998
633.011 0.1633300000000002
633.307 0.16666000000000025
633.603 0.20333000000000023
633.899 0.1533300000000004
634.195 0.14666000000000023
634.493 0.19666000000000006
634.789 0.14333000000000018
635.085 0.15000000000000036
635.381 0.1633300000000002
635.679 0.17666000000000004
635.975 0.19333
636.271 0.18333000000000022
636.567 0.17332999999999998
636.863 0.16000000000000014
637.161 0.17000000000000037
637.457 0.1533300000000004
637.752 0.17666000000000004
638.048 0.15666000000000002
638.344 0.19333
638.64 0.16000000000000014
638.938 0.16666000000000025
639.234 0.18666000000000027
639.529 0.16666000000000025
639.825 0.18333000000000022
640.121 0.16666000000000025
640.419 0.17666000000000004
640.715 0.2066600000000003
641.01 0.1533300000000004
641.306 0.20333000000000023
641.602 0.2366600000000001
641.898 0.20333000000000023
642.193 0.17332999999999998
642.491 0.18000000000000016
642.787 0.18666000000000027
643.082 0.16000000000000014
643.378 0.19333
643.674 0.2100000000000004
643.969 0.19666000000000006
644.265 0.20333000000000023
644.563 0.19333
644.858 0.17000000000000037
645.154 0.19333
645.45 0.17000000000000037
645.745 0.17332999999999998
646.041 0.16000000000000014
646.336 0.20333000000000023
646.632 0.19666000000000006
646.928 0.16666000000000025
647.225 0.20000000000000018
647.521 0.16666000000000025
647.816 0.16666000000000025
648.112 0.17332999999999998
648.407 0.18000000000000016
648.703 0.19333
648.998 0.2066600000000003
649.294 0.18666000000000027
649.589 0.19666000000000006
649.885 0.16666000000000025
650.18 0.18666000000000027
650.478 0.17332999999999998
650.773 0.19333
651.069 0.18666000000000027
651.364 0.18000000000000016
651.659 0.20333000000000023
651.955 0.14666000000000023
652.25 0.17000000000000037
652.546 0.20000000000000018
652.841 0.15666000000000002
653.136 0.18000000000000016
653.432 0.16666000000000025
653.727 0.1633300000000002
654.022 0.1633300000000002
654.318 0.18000000000000016
654.613 0.17332999999999998
654.908 0.18333000000000022
655.204 0.15666000000000002
655.499 0.19333
655.794 0.1633300000000002
656.09 0.1533300000000004
656.385 0.16000000000000014
656.68 0.18000000000000016
656.975 0.17000000000000037
657.271 0.14333000000000018
657.566 0.18000000000000016
657.861 0.14000000000000012
658.156 0.15000000000000036
658.451 0.14666000000000023
658.747 0.18666000000000027
659.042 0.15845397004389827
659.337 0.1577858122885063
659.632 0.1578487955348442
659.927 0.15814703645679895
660.222 0.15854120485743062
660.518 0.15837203702042313
660.813 0.15884685137542043
661.108 0.15782791527579798
661.403 0.15803156360485326
661.698 0.15842708376077885
661.993 0.1586549845729146
662.288 0.15815399886353365
662.583 0.15788435247623633
662.878 0.15788101571762425
663.173 0.15852003035198958
663.468 0.15829203823322846
663.763 0.15860772949015134
664.058 0.15843318262990058
664.353 0.15832911295097984
664.648 0.15842458910941382
664.943 0.1533300000000004
665.238 0.14666000000000023
665.531 0.1066600000000002
665.826 0.14333000000000018
666.121 0.12333000000000016
666.416 0.1200000000000001
666.711 0.14000000000000012
667.006 0.1200000000000001
667.301 0.1200000000000001
667.596 0.13666
667.891 0.1333300000000004
668.185 0.14000000000000012
668.48 0.1333300000000004
668.773 0.14000000000000012
669.068 0.11000000000000032
669.363 0.1533300000000004
669.658 0.14000000000000012
669.953 0.1333300000000004
670.247 0.14666000000000023
670.542 0.15666000000000002
670.837 0.14666000000000023
671.132 0.17000000000000037
671.424 0.13666
671.719 0.17000000000000037
672.014 0.16000000000000014
672.309 0.12666000000000022
672.603 0.11665999999999999
672.898 0.13666
673.193 0.15666000000000002
673.486 0.12666000000000022
673.78 0.14666000000000023
674.075 0.17666000000000004
674.37 0.14333000000000018
674.664 0.12666000000000022
674.959 0.12333000000000016
675.254 0.18000000000000016
675.546 0.13666
675.841 0.1066600000000002
