# Created: 2019-11-28 15:00:09.856549
# rshift intensity
44.8672 0.30000000000000027
45.1934 0.28667
45.5197 0.3200000000000003
45.8459 0.3133400000000002
46.172 0.31000000000000005
46.4982 0.36334
46.8244 0.33667000000000025
47.1506 0.36334
47.4767 0.3133400000000002
47.8028 0.3333400000000002
48.1268 0.31000000000000005
48.4529 0.29000000000000004
48.779 0.31000000000000005
49.1051 0.31667000000000023
49.4312 0.30667
49.7573 0.29000000000000004
50.0833 0.3200000000000003
50.4094 0.3333400000000002
50.7354 0.27
51.0614 0.29000000000000004
51.3874 0.31000000000000005
51.7134 0.28667
52.0394 0.30667
52.3654 0.2533400000000001
52.6892 0.29334000000000016
53.0151 0.31667000000000023
53.3411 0.26666999999999996
53.667 0.28667
53.9929 0.29000000000000004
54.3188 0.3133400000000002
54.6447 0.28000000000000025
54.9706 0.30667
55.2965 0.29334000000000016
55.6202 0.30000000000000027
55.9461 0.27
56.2719 0.29000000000000004
56.5977 0.29334000000000016
56.9235 0.29334000000000016
57.2494 0.2766700000000002
57.5751 0.27334000000000014
57.9009 0.28667
58.2246 0.29334000000000016
58.5503 0.30667
58.8761 0.28334000000000037
59.2018 0.28334000000000037
59.5275 0.26334000000000035
59.8532 0.28334000000000037
60.179 0.29000000000000004
60.5025 0.24334000000000033
60.8282 0.2766700000000002
61.1539 0.29334000000000016
61.4795 0.31000000000000005
61.8052 0.30667
62.1308 0.28667
62.4564 0.29334000000000016
62.7799 0.2966700000000002
63.1055 0.31000000000000005
63.4311 0.32333999999999996
63.7567 0.29334000000000016
64.0822 0.30000000000000027
64.4078 0.27334000000000014
64.7312 0.30667
65.0567 0.26666999999999996
65.3822 0.31667000000000023
65.7078 0.27334000000000014
66.0333 0.2766700000000002
66.3566 0.26000000000000023
66.6821 0.2966700000000002
67.0076 0.29334000000000016
67.333 0.3033400000000004
67.6584 0.28667
67.9817 0.28000000000000025
68.3072 0.29000000000000004
68.6326 0.27
68.958 0.30000000000000027
69.2834 0.3200000000000003
69.6066 0.3033400000000004
69.932 0.30667
70.2573 0.34667000000000003
70.5827 0.31000000000000005
70.9058 0.3033400000000004
71.2312 0.31000000000000005
71.5565 0.31000000000000005
71.8818 0.32333999999999996
72.2049 0.33000000000000007
72.5302 0.34667000000000003
72.8555 0.30667
73.1807 0.34334
73.5059 0.33667000000000025
73.829 0.30000000000000027
74.1543 0.3033400000000004
74.4795 0.3033400000000004
74.8025 0.28667
75.1277 0.31000000000000005
75.4529 0.31667000000000023
75.778 0.28667
76.101 0.28000000000000025
76.4262 0.25
76.7513 0.28667
77.0764 0.29334000000000016
77.3994 0.27
77.7245 0.28334000000000037
78.0496 0.26000000000000023
78.3746 0.28667
78.6976 0.2533400000000001
79.0226 0.26666999999999996
79.3476 0.27334000000000014
79.6705 0.29334000000000016
79.9956 0.29334000000000016
80.3206 0.28667
80.6434 0.2766700000000002
80.9684 0.24334000000000033
81.2934 0.28334000000000037
81.6183 0.23667000000000016
81.9411 0.28334000000000037
82.2661 0.27334000000000014
82.591 0.26666999999999996
82.9138 0.2966700000000002
83.2387 0.27
83.5636 0.27334000000000014
83.8863 0.27
84.2112 0.2766700000000002
84.536 0.3133400000000002
84.8587 0.2766700000000002
85.1836 0.28334000000000037
85.5084 0.2766700000000002
85.8311 0.2766700000000002
86.1559 0.27334000000000014
86.4807 0.2466700000000004
86.8033 0.26666999999999996
87.1281 0.27334000000000014
87.4528 0.24334000000000033
87.7754 0.29000000000000004
88.1002 0.2400000000000002
88.4249 0.26334000000000035
88.7475 0.24334000000000033
89.0722 0.26334000000000035
89.3947 0.28334000000000037
89.7194 0.27
90.0441 0.26666999999999996
90.3666 0.27334000000000014
90.6912 0.2766700000000002
91.0159 0.2533400000000001
91.3383 0.26666999999999996
91.663 0.28334000000000037
91.9854 0.26666999999999996
92.31 0.27334000000000014
92.6346 0.2766700000000002
92.957 0.30667
93.2816 0.26334000000000035
93.604 0.27
93.9285 0.27334000000000014
94.253 0.26000000000000023
94.5754 0.28334000000000037
94.8999 0.26334000000000035
95.2223 0.26666999999999996
95.5467 0.24334000000000033
95.8712 0.2466700000000004
96.1935 0.28334000000000037
96.518 0.2533400000000001
96.8402 0.2466700000000004
97.1647 0.2533400000000001
97.4869 0.2466700000000004
97.8113 0.2566700000000002
98.1357 0.2566700000000002
98.458 0.28334000000000037
98.7823 0.28000000000000025
99.1045 0.26000000000000023
99.4289 0.28667
99.7511 0.27334000000000014
100.075 0.28667
100.398 0.26334000000000035
100.722 0.2533400000000001
101.046 0.27334000000000014
101.368 0.2766700000000002
101.693 0.29334000000000016
102.015 0.2466700000000004
102.339 0.26334000000000035
102.661 0.26000000000000023
102.985 0.29334000000000016
103.307 0.27334000000000014
103.631 0.2566700000000002
103.954 0.2533400000000001
104.278 0.29000000000000004
104.6 0.2400000000000002
104.924 0.29000000000000004
105.246 0.2533400000000001
105.57 0.27
105.892 0.2466700000000004
106.216 0.22667000000000037
106.538 0.2766700000000002
106.862 0.29000000000000004
107.184 0.26000000000000023
107.508 0.28000000000000025
107.83 0.26666999999999996
108.154 0.26666999999999996
108.476 0.2466700000000004
108.8 0.28334000000000037
109.122 0.29334000000000016
109.446 0.25
109.768 0.29000000000000004
110.092 0.28000000000000025
110.414 0.25
110.737 0.28334000000000037
111.059 0.2533400000000001
111.383 0.28334000000000037
111.705 0.2400000000000002
112.029 0.2533400000000001
112.351 0.2566700000000002
112.675 0.2766700000000002
112.996 0.28000000000000025
113.318 0.27
113.642 0.2566700000000002
113.964 0.2533400000000001
114.287 0.28667
114.609 0.27334000000000014
114.933 0.26666999999999996
115.255 0.2400000000000002
115.578 0.26666999999999996
115.9 0.26666999999999996
116.222 0.2400000000000002
116.545 0.21667000000000014
116.867 0.2766700000000002
117.191 0.2533400000000001
117.512 0.26000000000000023
117.836 0.2766700000000002
118.158 0.22999999999999998
118.479 0.29334000000000016
118.803 0.25
119.124 0.24334000000000033
119.448 0.24334000000000033
119.769 0.28667
120.091 0.27334000000000014
120.415 0.2566700000000002
120.736 0.27334000000000014
121.06 0.2333400000000001
121.381 0.26000000000000023
121.702 0.26666999999999996
122.026 0.26000000000000023
122.347 0.2400000000000002
122.671 0.27
122.992 0.2466700000000004
123.314 0.23667000000000016
123.637 0.2566700000000002
123.959 0.25
124.28 0.2333400000000001
124.603 0.26334000000000035
124.925 0.25
125.246 0.2466700000000004
125.57 0.2466700000000004
125.891 0.25
126.214 0.2466700000000004
126.536 0.26334000000000035
126.857 0.24334000000000033
127.18 0.2533400000000001
127.501 0.21334000000000009
127.823 0.20999999999999996
128.146 0.25
128.467 0.27334000000000014
128.788 0.25
129.112 0.2400000000000002
129.433 0.27
129.754 0.2566700000000002
130.077 0.2566700000000002
130.398 0.24334000000000033
130.72 0.24334000000000033
131.043 0.27334000000000014
131.364 0.2466700000000004
131.685 0.28334000000000037
132.006 0.2200000000000002
132.329 0.26334000000000035
132.65 0.25
132.971 0.27
133.295 0.20999999999999996
133.616 0.29334000000000016
133.937 0.25
134.26 0.2466700000000004
134.581 0.25
134.902 0.24334000000000033
135.223 0.27334000000000014
135.546 0.23667000000000016
135.867 0.2466700000000004
136.188 0.29334000000000016
136.511 0.2200000000000002
136.832 0.26334000000000035
137.153 0.26334000000000035
137.473 0.26334000000000035
137.796 0.26334000000000035
138.117 0.24334000000000033
138.438 0.22334000000000032
138.759 0.2566700000000002
139.082 0.2466700000000004
139.403 0.22334000000000032
139.724 0.24334000000000033
140.044 0.26666999999999996
140.367 0.2533400000000001
140.688 0.2533400000000001
141.009 0.2466700000000004
141.33 0.25
141.653 0.21667000000000014
141.973 0.29334000000000016
142.294 0.2566700000000002
142.615 0.2333400000000001
142.938 0.2333400000000001
143.258 0.2566700000000002
143.579 0.2466700000000004
143.9 0.2333400000000001
144.22 0.2466700000000004
144.543 0.21667000000000014
144.864 0.27334000000000014
145.184 0.20667000000000035
145.505 0.23667000000000016
145.826 0.2466700000000004
146.148 0.2533400000000001
146.469 0.26334000000000035
146.79 0.22334000000000032
147.11 0.2333400000000001
147.431 0.26334000000000035
147.753 0.25
148.074 0.27
148.394 0.29334000000000016
148.715 0.22999999999999998
149.035 0.2333400000000001
149.358 0.2400000000000002
149.678 0.2533400000000001
149.999 0.25
150.319 0.25
150.64 0.22999999999999998
150.96 0.23667000000000016
151.283 0.28334000000000037
151.603 0.22667000000000037
151.924 0.26000000000000023
152.244 0.23667000000000016
152.564 0.2466700000000004
152.885 0.26334000000000035
153.205 0.23667000000000016
153.528 0.2533400000000001
153.848 0.24334000000000033
154.168 0.27334000000000014
154.489 0.25
154.809 0.2533400000000001
155.129 0.2400000000000002
155.449 0.26000000000000023
155.77 0.26334000000000035
156.092 0.27334000000000014
156.412 0.26666999999999996
156.733 0.2333400000000001
157.053 0.2566700000000002
157.373 0.26334000000000035
157.693 0.22667000000000037
158.013 0.26334000000000035
158.334 0.26666999999999996
158.656 0.26666999999999996
158.976 0.2400000000000002
159.296 0.2766700000000002
159.616 0.24334000000000033
159.936 0.25
160.257 0.2400000000000002
160.577 0.2466700000000004
160.897 0.23667000000000016
161.217 0.2533400000000001
161.537 0.2766700000000002
161.857 0.26000000000000023
162.177 0.26334000000000035
162.499 0.2400000000000002
162.819 0.2333400000000001
163.139 0.23667000000000016
163.459 0.2400000000000002
163.779 0.27
164.099 0.27334000000000014
164.419 0.2766700000000002
164.739 0.25
165.059 0.2566700000000002
165.379 0.2466700000000004
165.699 0.24334000000000033
166.019 0.2333400000000001
166.339 0.29000000000000004
166.659 0.2533400000000001
166.978 0.27334000000000014
167.298 0.2533400000000001
167.618 0.23667000000000016
167.938 0.2400000000000002
168.258 0.22334000000000032
168.578 0.2466700000000004
168.898 0.28334000000000037
169.219 0.26666999999999996
169.539 0.22334000000000032
169.859 0.2333400000000001
170.179 0.2533400000000001
170.499 0.22999999999999998
170.818 0.25
171.138 0.2466700000000004
171.458 0.2400000000000002
171.778 0.25
172.097 0.26334000000000035
172.417 0.27334000000000014
172.737 0.2566700000000002
173.056 0.22999999999999998
173.376 0.2566700000000002
173.696 0.2533400000000001
174.015 0.22999999999999998
174.335 0.24334000000000033
174.652 0.25
174.972 0.22334000000000032
175.292 0.22667000000000037
175.611 0.2766700000000002
175.931 0.2566700000000002
176.25 0.2566700000000002
176.57 0.2566700000000002
176.889 0.24334000000000033
177.209 0.2466700000000004
177.528 0.20667000000000035
177.848 0.2466700000000004
178.167 0.27
178.487 0.22999999999999998
178.806 0.2533400000000001
179.126 0.23667000000000016
179.445 0.25
179.765 0.24334000000000033
180.084 0.21667000000000014
180.404 0.22999999999999998
180.723 0.29000000000000004
181.042 0.2333400000000001
181.36 0.2400000000000002
181.679 0.23667000000000016
181.998 0.2200000000000002
182.318 0.2566700000000002
182.637 0.23667000000000016
182.957 0.23667000000000016
183.276 0.23667000000000016
183.595 0.21667000000000014
183.914 0.22999999999999998
184.234 0.24334000000000033
184.553 0.22334000000000032
184.87 0.2566700000000002
185.189 0.21334000000000009
185.509 0.22334000000000032
185.828 0.23667000000000016
186.147 0.22999999999999998
186.466 0.28334000000000037
186.786 0.22999999999999998
187.105 0.2466700000000004
187.424 0.2333400000000001
187.741 0.26666999999999996
188.06 0.2400000000000002
188.379 0.2566700000000002
188.698 0.26000000000000023
189.018 0.26334000000000035
189.337 0.26666999999999996
189.656 0.2533400000000001
189.975 0.29000000000000004
190.292 0.26334000000000035
190.611 0.2333400000000001
190.93 0.26666999999999996
191.249 0.2333400000000001
191.568 0.2333400000000001
191.887 0.22334000000000032
192.204 0.23667000000000016
192.523 0.22334000000000032
192.842 0.26334000000000035
193.161 0.22667000000000037
193.48 0.24334000000000033
193.799 0.25
194.116 0.24334000000000033
194.435 0.22667000000000037
194.754 0.2333400000000001
195.073 0.26666999999999996
195.391 0.2533400000000001
195.71 0.26334000000000035
196.027 0.26666999999999996
196.346 0.2466700000000004
196.665 0.24334000000000033
196.984 0.2533400000000001
197.303 0.21667000000000014
197.619 0.25
197.938 0.2566700000000002
198.257 0.2466700000000004
198.576 0.2466700000000004
198.895 0.2466700000000004
199.211 0.21334000000000009
199.53 0.27
199.849 0.2533400000000001
200.167 0.25
200.484 0.26000000000000023
200.803 0.23667000000000016
201.121 0.22999999999999998
201.44 0.2566700000000002
201.759 0.20667000000000035
202.075 0.2333400000000001
202.394 0.25
202.713 0.2766700000000002
203.031 0.2466700000000004
203.348 0.2566700000000002
203.667 0.23667000000000016
203.985 0.2533400000000001
204.304 0.23667000000000016
204.62 0.23667000000000016
204.939 0.2466700000000004
205.257 0.2033400000000003
205.574 0.21667000000000014
205.892 0.2333400000000001
206.211 0.2200000000000002
206.529 0.22999999999999998
206.846 0.19667000000000012
207.164 0.27334000000000014
207.483 0.24334000000000033
207.801 0.27
208.118 0.2566700000000002
208.436 0.29000000000000004
208.755 0.2566700000000002
209.071 0.2400000000000002
209.389 0.26334000000000035
209.708 0.26000000000000023
210.026 0.2333400000000001
210.342 0.22334000000000032
210.661 0.24334000000000033
210.979 0.2566700000000002
211.296 0.21334000000000009
211.614 0.2333400000000001
211.932 0.2466700000000004
212.248 0.20000000000000018
212.567 0.2466700000000004
212.885 0.26000000000000023
213.201 0.2400000000000002
213.52 0.26000000000000023
213.838 0.21334000000000009
214.154 0.2400000000000002
214.472 0.21667000000000014
214.79 0.2466700000000004
215.107 0.26334000000000035
215.425 0.2566700000000002
215.743 0.25
216.059 0.2400000000000002
216.377 0.2766700000000002
216.695 0.2533400000000001
217.012 0.26334000000000035
217.33 0.2200000000000002
217.648 0.27
217.964 0.2466700000000004
218.282 0.22999999999999998
218.598 0.22999999999999998
218.916 0.2400000000000002
219.234 0.2400000000000002
219.55 0.27
219.868 0.29000000000000004
220.186 0.27334000000000014
220.502 0.26334000000000035
220.82 0.26334000000000035
221.136 0.25
221.454 0.22334000000000032
221.772 0.23667000000000016
222.088 0.2466700000000004
222.406 0.26000000000000023
222.722 0.27
223.04 0.2566700000000002
223.358 0.28000000000000025
223.674 0.25
223.992 0.22667000000000037
224.307 0.2533400000000001
224.625 0.2200000000000002
224.943 0.28667
225.259 0.2200000000000002
225.577 0.28334000000000037
225.893 0.23667000000000016
226.21 0.2400000000000002
226.526 0.26334000000000035
226.844 0.24334000000000033
227.162 0.27334000000000014
227.478 0.25
227.795 0.23667000000000016
228.111 0.26666999999999996
228.429 0.26000000000000023
228.744 0.29334000000000016
229.062 0.24334000000000033
229.378 0.26334000000000035
229.696 0.25
230.011 0.25
230.329 0.22999999999999998
230.647 0.22334000000000032
230.962 0.26000000000000023
231.28 0.22999999999999998
231.595 0.26334000000000035
231.913 0.2466700000000004
232.229 0.2533400000000001
232.546 0.26000000000000023
232.862 0.26000000000000023
233.179 0.2333400000000001
233.495 0.2533400000000001
233.813 0.24334000000000033
234.128 0.22999999999999998
234.446 0.26000000000000023
234.761 0.2566700000000002
235.079 0.23667000000000016
235.394 0.20999999999999996
235.712 0.2333400000000001
236.027 0.26000000000000023
236.344 0.23667000000000016
236.66 0.26000000000000023
236.977 0.2033400000000003
237.293 0.27
237.61 0.26666999999999996
237.926 0.26334000000000035
238.243 0.25
238.558 0.2533400000000001
238.876 0.22667000000000037
239.191 0.26334000000000035
239.508 0.2566700000000002
239.824 0.25
240.139 0.28000000000000025
240.456 0.28000000000000025
240.772 0.2566700000000002
241.089 0.24334000000000033
241.404 0.27
241.721 0.2400000000000002
242.037 0.21667000000000014
242.354 0.2533400000000001
242.669 0.25
242.984 0.2200000000000002
243.302 0.2400000000000002
243.617 0.2333400000000001
243.934 0.24334000000000033
244.249 0.22334000000000032
244.566 0.23667000000000016
244.881 0.26334000000000035
245.197 0.20999999999999996
245.514 0.23667000000000016
245.829 0.25
246.146 0.26334000000000035
246.461 0.23667000000000016
246.776 0.22999999999999998
247.093 0.2333400000000001
247.408 0.2466700000000004
247.725 0.23667000000000016
248.04 0.25
248.355 0.2333400000000001
248.672 0.26666999999999996
248.987 0.23667000000000016
249.305 0.2533400000000001
249.619 0.25
249.934 0.2533400000000001
250.251 0.2033400000000003
250.566 0.2566700000000002
250.883 0.25
251.198 0.19667000000000012
251.513 0.2333400000000001
251.83 0.23667000000000016
252.145 0.2400000000000002
252.46 0.22667000000000037
252.777 0.2466700000000004
253.092 0.2200000000000002
253.406 0.2533400000000001
253.723 0.2766700000000002
254.038 0.2533400000000001
254.353 0.2466700000000004
254.67 0.28000000000000025
254.985 0.23667000000000016
255.299 0.2466700000000004
255.616 0.25
255.931 0.24334000000000033
256.246 0.2466700000000004
256.562 0.22999999999999998
256.877 0.2566700000000002
257.192 0.22999999999999998
257.509 0.2533400000000001
257.823 0.22334000000000032
258.138 0.19334000000000007
258.455 0.23667000000000016
258.769 0.26000000000000023
259.084 0.23667000000000016
259.401 0.22667000000000037
259.715 0.2466700000000004
260.03 0.23667000000000016
260.347 0.2333400000000001
260.661 0.22667000000000037
260.976 0.21667000000000014
261.29 0.23667000000000016
261.607 0.21334000000000009
261.922 0.2533400000000001
262.236 0.2333400000000001
262.553 0.22667000000000037
262.867 0.2533400000000001
263.182 0.20999999999999996
263.496 0.26000000000000023
263.813 0.2566700000000002
264.127 0.23667000000000016
264.442 0.2533400000000001
264.756 0.19667000000000012
265.073 0.25
265.387 0.26000000000000023
265.701 0.2400000000000002
266.016 0.27
266.332 0.2466700000000004
266.647 0.2400000000000002
266.961 0.26666999999999996
267.275 0.22999999999999998
267.592 0.2566700000000002
267.906 0.21334000000000009
268.22 0.21334000000000009
268.535 0.2333400000000001
268.851 0.20667000000000035
269.165 0.2533400000000001
269.48 0.2533400000000001
269.794 0.23667000000000016
270.108 0.2333400000000001
270.425 0.2033400000000003
270.739 0.24334000000000033
271.053 0.25
271.367 0.2333400000000001
271.681 0.26334000000000035
271.998 0.20000000000000018
272.312 0.2400000000000002
272.626 0.26666999999999996
272.94 0.21667000000000014
273.254 0.2466700000000004
273.571 0.2200000000000002
273.885 0.21334000000000009
274.199 0.2466700000000004
274.513 0.2466700000000004
274.827 0.2533400000000001
275.143 0.24334000000000033
275.457 0.23667000000000016
275.771 0.2400000000000002
276.085 0.2400000000000002
276.399 0.2400000000000002
276.714 0.2566700000000002
277.03 0.27334000000000014
277.344 0.22334000000000032
277.658 0.2466700000000004
277.972 0.22999999999999998
278.286 0.2400000000000002
278.6 0.28334000000000037
278.914 0.26334000000000035
279.23 0.26000000000000023
279.543 0.2533400000000001
279.857 0.26334000000000035
280.171 0.22334000000000032
280.485 0.22999999999999998
280.799 0.2466700000000004
281.113 0.2400000000000002
281.429 0.2333400000000001
281.743 0.24334000000000033
282.057 0.22999999999999998
282.371 0.24334000000000033
282.684 0.2333400000000001
282.998 0.25
283.312 0.26000000000000023
283.626 0.26666999999999996
283.94 0.24334000000000033
284.255 0.27
284.569 0.25
284.883 0.24334000000000033
285.197 0.2400000000000002
285.51 0.23667000000000016
285.824 0.2333400000000001
286.138 0.2466700000000004
286.452 0.29334000000000016
286.765 0.2033400000000003
287.079 0.21334000000000009
287.393 0.2566700000000002
287.706 0.26666999999999996
288.022 0.23667000000000016
288.336 0.25
288.649 0.21334000000000009
288.963 0.2400000000000002
289.276 0.21667000000000014
289.59 0.23667000000000016
289.904 0.25
290.217 0.26000000000000023
290.531 0.2400000000000002
290.844 0.2400000000000002
291.158 0.26000000000000023
291.471 0.27
291.785 0.24334000000000033
292.098 0.2566700000000002
292.412 0.28000000000000025
292.725 0.2766700000000002
293.039 0.2566700000000002
293.352 0.2466700000000004
293.666 0.20667000000000035
293.979 0.2400000000000002
294.293 0.24334000000000033
294.606 0.26334000000000035
294.92 0.21667000000000014
295.233 0.26334000000000035
295.546 0.28334000000000037
295.86 0.24334000000000033
296.173 0.26000000000000023
296.486 0.2533400000000001
296.8 0.2200000000000002
297.113 0.2533400000000001
297.427 0.2533400000000001
297.74 0.27334000000000014
298.053 0.2533400000000001
298.366 0.25
298.68 0.2533400000000001
298.993 0.26000000000000023
299.306 0.2200000000000002
299.62 0.2566700000000002
299.933 0.2566700000000002
300.246 0.2466700000000004
300.559 0.2466700000000004
300.872 0.27
301.186 0.2200000000000002
301.499 0.20000000000000018
301.812 0.2200000000000002
302.125 0.23667000000000016
302.438 0.2566700000000002
302.751 0.26000000000000023
303.065 0.20999999999999996
303.378 0.26334000000000035
303.691 0.25
304.004 0.26000000000000023
304.317 0.2566700000000002
304.63 0.26000000000000023
304.941 0.2566700000000002
305.254 0.3033400000000004
305.567 0.23667000000000016
305.88 0.26666999999999996
306.193 0.22334000000000032
306.506 0.26334000000000035
306.819 0.2533400000000001
307.132 0.27
307.445 0.27334000000000014
307.758 0.22999999999999998
308.071 0.23667000000000016
308.384 0.22334000000000032
308.695 0.2466700000000004
309.008 0.24334000000000033
309.321 0.2466700000000004
309.634 0.23667000000000016
309.947 0.2333400000000001
310.26 0.2566700000000002
310.573 0.2466700000000004
310.885 0.24334000000000033
311.198 0.26334000000000035
311.509 0.26000000000000023
311.822 0.2533400000000001
312.135 0.2566700000000002
312.448 0.24334000000000033
312.76 0.2766700000000002
313.073 0.2766700000000002
313.386 0.25
313.699 0.25
314.009 0.2533400000000001
314.322 0.28000000000000025
314.635 0.26000000000000023
314.948 0.28667
315.26 0.2400000000000002
315.573 0.21667000000000014
315.884 0.29000000000000004
316.196 0.2400000000000002
316.509 0.26334000000000035
316.822 0.2566700000000002
317.134 0.2566700000000002
317.447 0.2333400000000001
317.758 0.25
318.07 0.28667
318.383 0.2033400000000003
318.696 0.2400000000000002
319.008 0.25
319.321 0.23667000000000016
319.631 0.25
319.944 0.23667000000000016
320.256 0.26666999999999996
320.569 0.2766700000000002
320.881 0.26666999999999996
321.192 0.2766700000000002
321.504 0.23667000000000016
321.817 0.2566700000000002
322.129 0.30000000000000027
322.44 0.28000000000000025
322.752 0.2766700000000002
323.065 0.25
323.377 0.2533400000000001
323.69 0.27
324.0 0.27334000000000014
324.312 0.31000000000000005
324.625 0.25
324.937 0.26000000000000023
325.248 0.28000000000000025
325.56 0.22999999999999998
325.872 0.26666999999999996
326.185 0.2566700000000002
326.495 0.28000000000000025
326.807 0.25
327.12 0.2766700000000002
327.432 0.23667000000000016
327.742 0.26334000000000035
328.054 0.28000000000000025
328.367 0.29334000000000016
328.679 0.27
328.989 0.2766700000000002
329.301 0.2766700000000002
329.614 0.26666999999999996
329.926 0.29000000000000004
330.236 0.2333400000000001
330.548 0.26666999999999996
330.86 0.2966700000000002
331.17 0.30000000000000027
331.483 0.2966700000000002
331.795 0.26666999999999996
332.107 0.2966700000000002
332.417 0.2333400000000001
332.729 0.27
333.041 0.2566700000000002
333.351 0.27334000000000014
333.663 0.2766700000000002
333.976 0.2566700000000002
334.286 0.26666999999999996
334.598 0.3033400000000004
334.91 0.2766700000000002
335.22 0.27
335.532 0.25
335.844 0.28334000000000037
336.154 0.30000000000000027
336.466 0.28000000000000025
336.778 0.2766700000000002
337.088 0.28667
337.4 0.2566700000000002
337.712 0.27
338.021 0.3033400000000004
338.333 0.27334000000000014
338.645 0.30667
338.955 0.28000000000000025
339.267 0.28334000000000037
339.579 0.29000000000000004
339.889 0.24334000000000033
340.201 0.2533400000000001
340.513 0.27
340.822 0.3033400000000004
341.134 0.27
341.446 0.28667
341.756 0.26334000000000035
342.068 0.32333999999999996
342.377 0.30667
342.689 0.29334000000000016
343.001 0.28000000000000025
343.311 0.26000000000000023
343.622 0.26334000000000035
343.932 0.31000000000000005
344.244 0.30667
344.555 0.27
344.865 0.28334000000000037
345.177 0.26666999999999996
345.486 0.3033400000000004
345.798 0.26666999999999996
346.11 0.28667
346.419 0.26000000000000023
346.731 0.27
347.041 0.28334000000000037
347.352 0.30000000000000027
347.662 0.2466700000000004
347.973 0.2766700000000002
348.285 0.29334000000000016
348.595 0.30000000000000027
348.906 0.24334000000000033
349.216 0.28000000000000025
349.527 0.30000000000000027
349.837 0.26334000000000035
350.148 0.30000000000000027
350.46 0.27
350.769 0.27334000000000014
351.081 0.28667
351.39 0.27334000000000014
351.702 0.28667
352.011 0.27334000000000014
352.323 0.26000000000000023
352.632 0.24334000000000033
352.943 0.2966700000000002
353.253 0.29334000000000016
353.564 0.2766700000000002
353.874 0.26334000000000035
354.185 0.3133400000000002
354.494 0.28667
354.806 0.30000000000000027
355.117 0.2400000000000002
355.426 0.2766700000000002
355.738 0.27
356.047 0.28334000000000037
356.358 0.2766700000000002
356.668 0.28334000000000037
356.979 0.28667
357.288 0.28000000000000025
357.599 0.2966700000000002
357.909 0.27
358.218 0.29334000000000016
358.529 0.28000000000000025
358.838 0.28334000000000037
359.15 0.27334000000000014
359.459 0.30000000000000027
359.77 0.31667000000000023
360.079 0.3133400000000002
360.39 0.26666999999999996
360.699 0.27334000000000014
361.011 0.29334000000000016
361.32 0.3033400000000004
361.631 0.2766700000000002
361.94 0.31000000000000005
362.251 0.31000000000000005
362.56 0.27
362.869 0.30000000000000027
363.18 0.31667000000000023
363.489 0.2966700000000002
363.8 0.2966700000000002
364.109 0.27334000000000014
364.42 0.29000000000000004
364.729 0.28334000000000037
365.04 0.26666999999999996
365.349 0.26666999999999996
365.658 0.2966700000000002
365.969 0.26334000000000035
366.278 0.32667
366.589 0.29000000000000004
366.898 0.2966700000000002
367.207 0.28667
367.518 0.3133400000000002
367.827 0.28334000000000037
368.138 0.2566700000000002
368.447 0.2966700000000002
368.756 0.28334000000000037
369.066 0.28667
369.375 0.28667
369.686 0.30667
369.995 0.28667
370.304 0.26334000000000035
370.615 0.3033400000000004
370.923 0.27334000000000014
371.234 0.28667
371.543 0.29000000000000004
371.852 0.28667
372.163 0.27
372.471 0.2466700000000004
372.78 0.27334000000000014
373.091 0.29334000000000016
373.399 0.25
373.708 0.26666999999999996
374.019 0.2966700000000002
374.327 0.31667000000000023
374.636 0.2566700000000002
374.947 0.28667
375.255 0.33667000000000025
375.566 0.31000000000000005
375.875 0.29334000000000016
376.183 0.29000000000000004
376.494 0.29334000000000016
376.803 0.2966700000000002
377.111 0.30667
377.42 0.28000000000000025
377.73 0.28334000000000037
378.039 0.3133400000000002
378.347 0.28334000000000037
378.658 0.3033400000000004
378.966 0.31000000000000005
379.275 0.30667
379.586 0.32667
379.894 0.27334000000000014
380.202 0.27334000000000014
380.513 0.33667000000000025
380.821 0.31000000000000005
381.13 0.3200000000000003
381.438 0.32333999999999996
381.749 0.30000000000000027
382.057 0.3200000000000003
382.366 0.30667
382.676 0.28667
382.984 0.26334000000000035
383.293 0.27334000000000014
383.601 0.3133400000000002
383.911 0.30000000000000027
384.22 0.3200000000000003
384.528 0.28334000000000037
384.836 0.2966700000000002
385.147 0.28667
385.455 0.2966700000000002
385.763 0.3400000000000003
386.072 0.2533400000000001
386.382 0.32333999999999996
386.69 0.2966700000000002
386.998 0.31667000000000023
387.307 0.30667
387.617 0.3200000000000003
387.925 0.31000000000000005
388.233 0.28667
388.542 0.32667
388.852 0.31000000000000005
389.16 0.3033400000000004
389.468 0.3333400000000002
389.776 0.32333999999999996
390.084 0.3133400000000002
390.395 0.3333400000000002
390.703 0.34334
391.011 0.31000000000000005
391.319 0.29000000000000004
391.627 0.29000000000000004
391.937 0.32667
392.245 0.29334000000000016
392.553 0.3400000000000003
392.861 0.33000000000000007
393.169 0.31000000000000005
393.479 0.30000000000000027
393.787 0.33000000000000007
394.095 0.3500000000000001
394.403 0.3333400000000002
394.711 0.3133400000000002
395.021 0.3133400000000002
395.329 0.3400000000000003
395.637 0.33000000000000007
395.945 0.31000000000000005
396.253 0.36667000000000005
396.561 0.3033400000000004
396.871 0.34334
397.179 0.3333400000000002
397.487 0.3200000000000003
397.795 0.3133400000000002
398.102 0.31000000000000005
398.41 0.33000000000000007
398.718 0.3133400000000002
399.028 0.3200000000000003
399.336 0.3400000000000003
399.644 0.3033400000000004
399.951 0.32667
400.259 0.34667000000000003
400.567 0.33667000000000025
400.875 0.3200000000000003
401.183 0.3700000000000001
401.492 0.3200000000000003
401.8 0.31000000000000005
402.108 0.3500000000000001
402.416 0.29000000000000004
402.723 0.3533400000000002
403.031 0.3333400000000002
403.339 0.3600000000000003
403.646 0.3033400000000004
403.954 0.3700000000000001
404.262 0.34667000000000003
404.571 0.33000000000000007
404.879 0.36334
405.187 0.3133400000000002
405.494 0.32333999999999996
405.802 0.3333400000000002
406.109 0.3400000000000003
406.417 0.3400000000000003
406.725 0.3333400000000002
407.032 0.3400000000000003
407.34 0.31667000000000023
407.647 0.4033400000000005
407.955 0.31667000000000023
408.262 0.33000000000000007
408.572 0.3200000000000003
408.879 0.3333400000000002
409.187 0.3500000000000001
409.494 0.3500000000000001
409.802 0.3500000000000001
410.109 0.36667000000000005
410.417 0.33667000000000025
410.724 0.3400000000000003
411.032 0.3500000000000001
411.339 0.3033400000000004
411.646 0.3333400000000002
411.954 0.3200000000000003
412.261 0.3400000000000003
412.569 0.33000000000000007
412.876 0.35667000000000026
413.183 0.28000000000000025
413.491 0.31000000000000005
413.798 0.3533400000000002
414.105 0.3500000000000001
414.413 0.34334
414.72 0.33000000000000007
415.027 0.30667
415.335 0.33667000000000025
415.642 0.32667
415.949 0.34667000000000003
416.256 0.30000000000000027
416.564 0.32667
416.871 0.33667000000000025
417.178 0.3600000000000003
417.485 0.3200000000000003
417.792 0.3500000000000001
418.1 0.31667000000000023
418.407 0.3200000000000003
418.714 0.3200000000000003
419.021 0.3333400000000002
419.328 0.33000000000000007
419.635 0.36334
419.943 0.32667
420.25 0.33667000000000025
420.557 0.31000000000000005
420.864 0.3133400000000002
421.171 0.33667000000000025
421.476 0.3033400000000004
421.783 0.3033400000000004
422.09 0.33000000000000007
422.397 0.33000000000000007
422.704 0.31000000000000005
423.011 0.3200000000000003
423.318 0.33000000000000007
423.625 0.33000000000000007
423.932 0.31667000000000023
424.239 0.32333999999999996
424.546 0.3333400000000002
424.853 0.32667
425.16 0.29000000000000004
425.465 0.3133400000000002
425.772 0.33667000000000025
426.079 0.32333999999999996
426.386 0.3200000000000003
426.693 0.33000000000000007
427.0 0.3200000000000003
427.307 0.33000000000000007
427.613 0.32333999999999996
427.92 0.31000000000000005
428.227 0.31000000000000005
428.532 0.31667000000000023
428.839 0.33000000000000007
429.146 0.26666999999999996
429.452 0.30000000000000027
429.759 0.3033400000000004
430.066 0.3400000000000003
430.373 0.33667000000000025
430.68 0.32667
430.984 0.32667
431.291 0.30667
431.598 0.33000000000000007
431.905 0.31000000000000005
432.211 0.31667000000000023
432.518 0.30667
432.825 0.29334000000000016
433.129 0.26666999999999996
433.436 0.28667
433.743 0.3200000000000003
434.049 0.29000000000000004
434.356 0.27334000000000014
434.663 0.3033400000000004
434.967 0.3200000000000003
435.274 0.3033400000000004
435.58 0.28000000000000025
435.887 0.30000000000000027
436.194 0.3333400000000002
436.498 0.3400000000000003
436.805 0.29334000000000016
437.111 0.31000000000000005
437.418 0.2966700000000002
437.724 0.31667000000000023
438.029 0.28000000000000025
438.335 0.30000000000000027
438.642 0.31667000000000023
438.948 0.30667
439.255 0.28000000000000025
439.559 0.30000000000000027
439.866 0.29000000000000004
440.172 0.2966700000000002
440.479 0.3033400000000004
440.785 0.2966700000000002
441.089 0.3200000000000003
441.396 0.29000000000000004
441.702 0.2966700000000002
442.009 0.28667
442.313 0.29334000000000016
442.619 0.27334000000000014
442.926 0.29334000000000016
443.232 0.28334000000000037
443.536 0.2966700000000002
443.843 0.31000000000000005
444.149 0.28334000000000037
444.455 0.32667
444.76 0.29334000000000016
445.066 0.27
445.372 0.3133400000000002
445.678 0.28000000000000025
445.983 0.27
446.289 0.29000000000000004
446.595 0.31000000000000005
446.901 0.30667
447.206 0.32667
447.512 0.2766700000000002
447.818 0.26334000000000035
448.122 0.27334000000000014
448.428 0.28667
448.734 0.2766700000000002
449.041 0.2400000000000002
449.345 0.29334000000000016
449.651 0.28334000000000037
449.957 0.2966700000000002
450.261 0.2466700000000004
450.567 0.26666999999999996
450.873 0.3200000000000003
451.177 0.28667
451.483 0.30000000000000027
451.789 0.31000000000000005
452.093 0.30000000000000027
452.399 0.30000000000000027
452.705 0.30000000000000027
453.009 0.29000000000000004
453.315 0.30000000000000027
453.621 0.30667
453.925 0.2966700000000002
454.231 0.29334000000000016
454.537 0.2966700000000002
454.841 0.3133400000000002
455.147 0.24334000000000033
455.453 0.29334000000000016
455.757 0.27
456.063 0.25
456.369 0.31667000000000023
456.673 0.29000000000000004
456.979 0.28000000000000025
457.285 0.31000000000000005
457.588 0.3033400000000004
457.894 0.33000000000000007
458.198 0.28667
458.504 0.31000000000000005
458.81 0.28667
459.113 0.3333400000000002
459.419 0.3133400000000002
459.723 0.29334000000000016
460.029 0.29334000000000016
460.335 0.31667000000000023
460.638 0.3200000000000003
460.944 0.32333999999999996
461.248 0.2966700000000002
461.554 0.32333999999999996
461.859 0.31667000000000023
462.163 0.29334000000000016
462.469 0.3033400000000004
462.772 0.30667
463.078 0.31000000000000005
463.384 0.31667000000000023
463.687 0.3033400000000004
463.993 0.30000000000000027
464.297 0.3200000000000003
464.602 0.30000000000000027
464.906 0.29000000000000004
465.211 0.3133400000000002
465.517 0.3200000000000003
465.821 0.33000000000000007
466.126 0.3033400000000004
466.43 0.2966700000000002
466.735 0.30000000000000027
467.039 0.3533400000000002
467.344 0.28334000000000037
467.648 0.31667000000000023
467.953 0.31000000000000005
468.257 0.3133400000000002
468.562 0.3200000000000003
468.868 0.29334000000000016
469.171 0.29334000000000016
469.477 0.3400000000000003
469.78 0.29000000000000004
470.086 0.2766700000000002
470.389 0.34667000000000003
470.694 0.36667000000000005
470.998 0.31000000000000005
471.303 0.3900000000000001
471.607 0.39666999999999986
471.912 0.4633400000000001
472.215 0.49334000000000033
472.521 0.4966700000000004
472.824 0.55667
473.129 0.5766700000000005
473.433 0.5699999999999998
473.738 0.5766700000000005
474.041 0.5366700000000004
474.347 0.59334
474.65 0.5000000000000004
474.955 0.5233400000000006
475.258 0.4433400000000005
475.564 0.4633400000000001
475.867 0.3533400000000002
476.17 0.34334
476.475 0.30667
476.779 0.28667
477.084 0.3033400000000004
477.387 0.34667000000000003
477.692 0.3200000000000003
477.995 0.31000000000000005
478.3 0.32667
478.604 0.2966700000000002
478.907 0.32333999999999996
479.212 0.28334000000000037
479.515 0.32333999999999996
479.82 0.3200000000000003
480.123 0.32333999999999996
480.428 0.29334000000000016
480.731 0.26334000000000035
481.036 0.3200000000000003
481.339 0.3400000000000003
481.642 0.3200000000000003
481.948 0.31667000000000023
482.251 0.29334000000000016
482.556 0.2400000000000002
482.859 0.3033400000000004
483.162 0.30000000000000027
483.467 0.30667
483.77 0.30000000000000027
484.075 0.26666999999999996
484.377 0.3400000000000003
484.68 0.3033400000000004
484.985 0.2966700000000002
485.288 0.28000000000000025
485.593 0.26334000000000035
485.896 0.3533400000000002
486.199 0.34667000000000003
486.504 0.30000000000000027
486.807 0.31000000000000005
487.11 0.2966700000000002
487.414 0.27334000000000014
487.717 0.32333999999999996
488.02 0.3033400000000004
488.325 0.3033400000000004
488.628 0.28667
488.933 0.3033400000000004
489.235 0.3033400000000004
489.538 0.35667000000000026
489.843 0.32333999999999996
490.146 0.28000000000000025
490.448 0.31667000000000023
490.753 0.29334000000000016
491.056 0.30000000000000027
491.359 0.3133400000000002
491.663 0.33000000000000007
491.966 0.28667
492.269 0.28667
492.573 0.29000000000000004
492.876 0.27334000000000014
493.179 0.31000000000000005
493.481 0.30000000000000027
493.786 0.34334
494.089 0.31000000000000005
494.391 0.31667000000000023
494.696 0.2966700000000002
494.998 0.3200000000000003
495.301 0.3033400000000004
495.606 0.31667000000000023
495.908 0.26334000000000035
496.211 0.28667
496.513 0.31667000000000023
496.818 0.30667
497.12 0.28000000000000025
497.423 0.24334000000000033
497.727 0.3033400000000004
498.03 0.30667
498.332 0.26334000000000035
498.635 0.3333400000000002
498.939 0.29000000000000004
499.242 0.28667
499.544 0.2966700000000002
499.847 0.30000000000000027
500.151 0.31000000000000005
500.453 0.32667
500.756 0.34667000000000003
501.058 0.3033400000000004
501.363 0.29000000000000004
501.665 0.3033400000000004
501.967 0.30667
502.27 0.33000000000000007
502.574 0.29334000000000016
502.876 0.31000000000000005
503.179 0.31000000000000005
503.481 0.3133400000000002
503.783 0.30667
504.088 0.2966700000000002
504.39 0.3400000000000003
504.692 0.30000000000000027
504.994 0.33667000000000025
505.297 0.3033400000000004
505.601 0.30000000000000027
505.903 0.2566700000000002
506.205 0.3200000000000003
506.508 0.32667
506.81 0.33000000000000007
507.114 0.2966700000000002
507.416 0.33000000000000007
507.718 0.27334000000000014
508.02 0.3333400000000002
508.323 0.2966700000000002
508.627 0.3600000000000003
508.929 0.3133400000000002
509.231 0.3133400000000002
509.533 0.32333999999999996
509.835 0.38000000000000034
510.137 0.3033400000000004
510.441 0.31667000000000023
510.743 0.30667
511.046 0.29334000000000016
511.348 0.32333999999999996
511.65 0.33000000000000007
511.952 0.33000000000000007
512.254 0.32667
512.558 0.31000000000000005
512.86 0.3533400000000002
513.162 0.34667000000000003
513.464 0.33000000000000007
513.766 0.3033400000000004
514.068 0.32333999999999996
514.37 0.3333400000000002
514.671 0.3500000000000001
514.975 0.33667000000000025
515.277 0.30000000000000027
515.579 0.32667
515.881 0.31667000000000023
516.183 0.31000000000000005
516.485 0.31000000000000005
516.787 0.3400000000000003
517.089 0.3033400000000004
517.39 0.30667
517.694 0.31000000000000005
517.996 0.3533400000000002
518.298 0.3200000000000003
518.6 0.31000000000000005
518.902 0.3133400000000002
519.203 0.3333400000000002
519.505 0.3033400000000004
519.807 0.3133400000000002
520.109 0.3500000000000001
520.41 0.33000000000000007
520.712 0.3333400000000002
521.014 0.33667000000000025
521.316 0.32333999999999996
521.617 0.3033400000000004
521.921 0.3033400000000004
522.223 0.3133400000000002
522.524 0.28000000000000025
522.826 0.32667
523.128 0.32667
523.429 0.29000000000000004
523.731 0.28667
524.033 0.32667
524.334 0.3133400000000002
524.636 0.2966700000000002
524.937 0.32667
525.239 0.34334
525.541 0.2966700000000002
525.842 0.35667000000000026
526.144 0.3200000000000003
526.445 0.30000000000000027
526.747 0.29000000000000004
527.048 0.31000000000000005
527.35 0.29334000000000016
527.651 0.28667
527.953 0.30000000000000027
528.254 0.32333999999999996
528.556 0.33667000000000025
528.857 0.30667
529.159 0.32333999999999996
529.46 0.31000000000000005
529.762 0.28000000000000025
530.063 0.28000000000000025
530.364 0.27334000000000014
530.666 0.30667
530.967 0.3033400000000004
531.269 0.28000000000000025
531.57 0.27
531.871 0.2966700000000002
532.173 0.32333999999999996
532.474 0.2966700000000002
532.775 0.3133400000000002
533.077 0.30000000000000027
533.378 0.3133400000000002
533.679 0.28667
533.981 0.26666999999999996
534.28 0.29000000000000004
534.581 0.26334000000000035
534.882 0.29000000000000004
535.184 0.3600000000000003
535.485 0.29334000000000016
535.786 0.29334000000000016
536.087 0.2766700000000002
536.389 0.30000000000000027
536.69 0.2766700000000002
536.991 0.26000000000000023
537.292 0.3133400000000002
537.593 0.27334000000000014
537.894 0.28000000000000025
538.194 0.28334000000000037
538.495 0.26666999999999996
538.796 0.33000000000000007
539.097 0.2566700000000002
539.398 0.27334000000000014
539.699 0.27334000000000014
540.0 0.28667
540.301 0.2966700000000002
540.603 0.2766700000000002
540.904 0.29334000000000016
541.203 0.29000000000000004
541.504 0.2766700000000002
541.805 0.28000000000000025
542.106 0.28334000000000037
542.407 0.27334000000000014
542.708 0.2566700000000002
543.009 0.28000000000000025
543.308 0.26000000000000023
543.609 0.2333400000000001
543.91 0.27
544.211 0.25
544.512 0.26666999999999996
544.812 0.26334000000000035
545.113 0.25
545.412 0.2566700000000002
545.713 0.29334000000000016
546.014 0.27334000000000014
546.315 0.23667000000000016
546.616 0.2966700000000002
546.917 0.2200000000000002
547.216 0.2766700000000002
547.516 0.26334000000000035
547.817 0.25
548.118 0.2533400000000001
548.419 0.2533400000000001
548.72 0.27
549.018 0.2566700000000002
549.319 0.2566700000000002
549.62 0.22334000000000032
549.921 0.26000000000000023
550.222 0.2333400000000001
550.52 0.26000000000000023
550.821 0.27334000000000014
551.122 0.22999999999999998
551.423 0.2566700000000002
551.721 0.2533400000000001
552.022 0.22999999999999998
552.323 0.22667000000000037
552.623 0.2400000000000002
552.924 0.28334000000000037
553.223 0.23667000000000016
553.523 0.2533400000000001
553.824 0.26334000000000035
554.125 0.24334000000000033
554.423 0.27334000000000014
554.724 0.2566700000000002
555.024 0.2566700000000002
555.325 0.23667000000000016
555.623 0.20999999999999996
555.924 0.25
556.225 0.21334000000000009
556.525 0.2400000000000002
556.824 0.25
557.124 0.2566700000000002
557.425 0.27
557.725 0.1900000000000004
558.024 0.2466700000000004
558.324 0.26666999999999996
558.625 0.2400000000000002
558.923 0.21334000000000009
559.224 0.21667000000000014
559.524 0.22999999999999998
559.824 0.24334000000000033
560.123 0.2566700000000002
560.423 0.2533400000000001
560.724 0.23667000000000016
561.022 0.26334000000000035
561.323 0.2466700000000004
561.623 0.23667000000000016
561.921 0.2466700000000004
562.222 0.2466700000000004
562.522 0.2566700000000002
562.822 0.21334000000000009
563.121 0.27
563.421 0.21334000000000009
563.721 0.28334000000000037
564.02 0.23667000000000016
564.32 0.27334000000000014
564.62 0.2466700000000004
564.918 0.25
565.219 0.21334000000000009
565.519 0.27334000000000014
565.817 0.2533400000000001
566.117 0.2333400000000001
566.418 0.2333400000000001
566.716 0.28334000000000037
567.016 0.21334000000000009
567.314 0.22334000000000032
567.614 0.26334000000000035
567.914 0.26666999999999996
568.213 0.2200000000000002
568.513 0.2333400000000001
568.813 0.2033400000000003
569.111 0.22334000000000032
569.411 0.2466700000000004
569.709 0.2400000000000002
570.009 0.22667000000000037
570.309 0.20999999999999996
570.608 0.21667000000000014
570.908 0.28334000000000037
571.208 0.2766700000000002
571.506 0.19667000000000012
571.806 0.26334000000000035
572.104 0.2566700000000002
572.404 0.26000000000000023
572.704 0.2533400000000001
573.002 0.24334000000000033
573.302 0.23667000000000016
573.6 0.21667000000000014
573.9 0.25
574.198 0.26334000000000035
574.498 0.26666999999999996
574.798 0.2533400000000001
575.096 0.23667000000000016
575.395 0.24334000000000033
575.693 0.2400000000000002
575.993 0.2333400000000001
576.291 0.25
576.591 0.26334000000000035
576.891 0.24334000000000033
577.189 0.26000000000000023
577.489 0.22334000000000032
577.786 0.2400000000000002
578.086 0.22334000000000032
578.384 0.20667000000000035
578.684 0.26666999999999996
578.982 0.22334000000000032
579.281 0.2200000000000002
579.579 0.27
579.879 0.25
580.177 0.22334000000000032
580.477 0.2400000000000002
580.774 0.22999999999999998
581.074 0.26666999999999996
581.372 0.2566700000000002
581.671 0.21667000000000014
581.969 0.2333400000000001
582.269 0.2333400000000001
582.567 0.27334000000000014
582.866 0.28334000000000037
583.164 0.21334000000000009
583.464 0.25
583.761 0.2466700000000004
584.061 0.2533400000000001
584.358 0.2466700000000004
584.658 0.2533400000000001
584.956 0.2466700000000004
585.255 0.24334000000000033
585.553 0.25
585.852 0.29334000000000016
586.15 0.2333400000000001
586.45 0.20999999999999996
586.747 0.23667000000000016
587.047 0.23667000000000016
587.344 0.2466700000000004
587.644 0.24334000000000033
587.941 0.22999999999999998
588.239 0.25
588.538 0.27
588.836 0.2333400000000001
589.135 0.28334000000000037
589.432 0.26666999999999996
589.732 0.2033400000000003
590.029 0.22999999999999998
590.329 0.22999999999999998
590.626 0.26334000000000035
590.924 0.24334000000000033
591.223 0.2533400000000001
591.52 0.30000000000000027
591.82 0.2333400000000001
592.117 0.2466700000000004
592.415 0.22334000000000032
592.714 0.24334000000000033
593.011 0.21667000000000014
593.311 0.24334000000000033
593.608 0.2400000000000002
593.905 0.26334000000000035
594.204 0.26334000000000035
594.502 0.19667000000000012
594.801 0.2333400000000001
595.098 0.2533400000000001
595.396 0.23667000000000016
595.695 0.26334000000000035
595.992 0.2766700000000002
596.291 0.25
596.589 0.25
596.886 0.2400000000000002
597.185 0.22667000000000037
597.482 0.21667000000000014
597.779 0.22667000000000037
598.078 0.2466700000000004
598.376 0.2400000000000002
598.673 0.2400000000000002
598.972 0.2466700000000004
599.269 0.21334000000000009
599.566 0.31667000000000023
599.865 0.2400000000000002
600.162 0.2333400000000001
600.459 0.2400000000000002
600.759 0.22999999999999998
601.056 0.27
601.353 0.27334000000000014
601.652 0.2333400000000001
601.949 0.25
602.246 0.24334000000000033
602.545 0.21667000000000014
602.842 0.26000000000000023
603.139 0.23667000000000016
603.438 0.23667000000000016
603.735 0.26334000000000035
604.032 0.2533400000000001
604.331 0.26000000000000023
604.628 0.22334000000000032
604.925 0.2533400000000001
605.222 0.20667000000000035
605.521 0.2566700000000002
605.818 0.2766700000000002
606.114 0.2533400000000001
606.413 0.2466700000000004
606.71 0.2400000000000002
607.007 0.26334000000000035
607.304 0.20999999999999996
607.603 0.21667000000000014
607.9 0.2200000000000002
608.196 0.2466700000000004
608.493 0.27334000000000014
608.792 0.26666999999999996
609.089 0.22334000000000032
609.386 0.2400000000000002
609.682 0.2466700000000004
609.981 0.20999999999999996
610.278 0.22667000000000037
610.575 0.2566700000000002
610.872 0.2200000000000002
611.17 0.21334000000000009
611.467 0.26000000000000023
611.764 0.2566700000000002
612.06 0.20999999999999996
612.359 0.22334000000000032
612.656 0.2333400000000001
612.953 0.2400000000000002
613.249 0.23667000000000016
613.546 0.24334000000000033
613.845 0.2333400000000001
614.141 0.22999999999999998
614.438 0.2466700000000004
614.734 0.20667000000000035
615.031 0.22999999999999998
615.33 0.25
615.626 0.21667000000000014
615.923 0.24334000000000033
616.219 0.22334000000000032
616.516 0.2400000000000002
616.815 0.22334000000000032
617.111 0.2400000000000002
617.408 0.19667000000000012
617.704 0.2200000000000002
618.001 0.2533400000000001
618.297 0.23667000000000016
618.596 0.2566700000000002
618.892 0.24334000000000033
619.189 0.2333400000000001
619.485 0.20999999999999996
619.782 0.21334000000000009
620.078 0.2333400000000001
620.374 0.26334000000000035
620.673 0.22334000000000032
620.969 0.2466700000000004
621.266 0.20999999999999996
621.562 0.2333400000000001
621.858 0.2200000000000002
622.155 0.21667000000000014
622.451 0.22999999999999998
622.75 0.23667000000000016
623.046 0.1900000000000004
623.342 0.25
623.639 0.24334000000000033
623.935 0.20667000000000035
624.231 0.21667000000000014
624.528 0.2333400000000001
624.824 0.22334000000000032
625.12 0.23667000000000016
625.418 0.2033400000000003
625.715 0.2466700000000004
626.011 0.2200000000000002
626.307 0.22334000000000032
626.603 0.2466700000000004
626.9 0.2200000000000002
627.196 0.22999999999999998
627.492 0.22334000000000032
627.788 0.21667000000000014
628.084 0.24334000000000033
628.381 0.22334000000000032
628.677 0.17334000000000005
628.975 0.2533400000000001
629.271 0.22999999999999998
629.567 0.19334000000000007
629.863 0.23667000000000016
630.159 0.20667000000000035
630.456 0.24334000000000033
630.752 0.2200000000000002
631.048 0.23667000000000016
631.344 0.2033400000000003
631.64 0.2566700000000002
631.936 0.2466700000000004
632.232 0.21667000000000014
632.528 0.20999999999999996
632.824 0.1766700000000001
633.12 0.22999999999999998
633.416 0.1900000000000004
633.712 0.2400000000000002
634.008 0.22999999999999998
634.304 0.26334000000000035
634.6 0.2200000000000002
634.896 0.18667000000000034
635.192 0.21334000000000009
635.488 0.2333400000000001
635.784 0.22999999999999998
636.08 0.2466700000000004
636.376 0.2466700000000004
636.672 0.2333400000000001
636.967 0.24334000000000033
637.263 0.21667000000000014
637.559 0.22999999999999998
637.855 0.2400000000000002
638.151 0.19667000000000012
638.447 0.2400000000000002
638.743 0.26000000000000023
639.038 0.19667000000000012
639.334 0.22667000000000037
639.63 0.25
639.926 0.22667000000000037
640.222 0.26334000000000035
640.517 0.2466700000000004
640.813 0.2466700000000004
641.109 0.20667000000000035
641.405 0.23667000000000016
641.7 0.2533400000000001
641.996 0.20999999999999996
642.292 0.28000000000000025
642.588 0.19667000000000012
642.881 0.26334000000000035
643.177 0.22999999999999998
643.473 0.2466700000000004
643.768 0.23667000000000016
644.064 0.2333400000000001
644.36 0.25
644.655 0.23667000000000016
644.951 0.24334000000000033
645.247 0.24334000000000033
645.542 0.2400000000000002
645.838 0.20667000000000035
646.133 0.26000000000000023
646.427 0.21334000000000009
646.723 0.22334000000000032
647.018 0.21667000000000014
647.314 0.22334000000000032
647.609 0.23667000000000016
647.905 0.22999999999999998
648.2 0.2033400000000003
648.496 0.25
648.791 0.23667000000000016
649.085 0.22334000000000032
649.38 0.2566700000000002
649.676 0.2200000000000002
649.971 0.2466700000000004
650.267 0.25
650.562 0.22667000000000037
650.858 0.22999999999999998
651.151 0.2333400000000001
651.446 0.22334000000000032
651.742 0.22999999999999998
652.037 0.20000000000000018
652.333 0.19334000000000007
652.628 0.24334000000000033
652.923 0.21334000000000009
653.217 0.21334000000000009
653.512 0.19667000000000012
653.807 0.22999999999999998
654.103 0.20999999999999996
654.398 0.22667000000000037
654.693 0.18000000000000016
654.987 0.21334000000000009
655.282 0.20999999999999996
655.577 0.2333400000000001
655.873 0.20667000000000035
656.168 0.21334000000000009
656.461 0.21334000000000009
656.756 0.26334000000000035
657.052 0.2400000000000002
657.347 0.23667000000000016
657.642 0.2200000000000002
657.935 0.21667000000000014
658.231 0.22334000000000032
658.526 0.22667000000000037
658.821 0.22334000000000032
659.116 0.18667000000000034
659.409 0.2400000000000002
659.704 0.23667000000000016
660.0 0.1766700000000001
660.295 0.22667000000000037
660.588 0.22334000000000032
660.883 0.2033400000000003
661.178 0.2333400000000001
661.473 0.2466700000000004
661.766 0.20999999999999996
662.061 0.20000000000000018
662.356 0.22334000000000032
662.651 0.23667000000000016
662.944 0.2200000000000002
663.239 0.19334000000000007
663.534 0.2033400000000003
663.83 0.20999999999999996
664.122 0.22334000000000032
664.417 0.17000000000000037
664.713 0.2200000000000002
665.008 0.2033400000000003
665.3 0.18334000000000028
665.595 0.22334000000000032
665.89 0.19334000000000007
666.183 0.2333400000000001
666.478 0.1900000000000004
666.773 0.19667000000000012
667.068 0.2033400000000003
667.361 0.22667000000000037
667.656 0.18667000000000034
667.951 0.2033400000000003
668.244 0.2033400000000003
668.539 0.20999999999999996
668.833 0.22334000000000032
